id	year	month	day	hour	minute	sex	age	handedness	message_viewing_time	block	trial_num	trial_initiation_time	fixation_duration	cue_location	cue_modality	target_location	target_modality	target_type	target_response_key	target_response_rt	pre_target_response	feedback_response	recalibration	blink	saccade	biggest_small_saccade	critical_blink	critical_saccade	target_started_TF
e02	2015	07	20	14	33	m	21	r	383.654261089	practice	1	4.89443537399	0.583708092191	left	visual	left	tactile	target	NA	NA	FALSE	FALSE	FALSE	FALSE	TRUE	0	FALSE	FALSE	TRUE
e02	2015	07	20	14	33	m	21	r	383.654261089	practice	2	0.824400375001	0.929243562555	right	visual	left	tactile	target	voice	NA	TRUE	FALSE	FALSE	FALSE	FALSE	0	FALSE	FALSE	FALSE
e02	2015	07	20	14	33	m	21	r	383.654261089	practice	3	1.773187584	1.27884210969	right	tactile	left	tactile	target	voice	844.884832972	FALSE	FALSE	FALSE	FALSE	FALSE	0	FALSE	FALSE	TRUE
e02	2015	07	20	14	33	m	21	r	383.654261089	practice	4	6.83686896101	0.577417824836	right	tactile	right	visual	catch	voice	NA	TRUE	FALSE	FALSE	FALSE	FALSE	0	FALSE	FALSE	FALSE
e02	2015	07	20	14	33	m	21	r	383.654261089	practice	5	3.82285377999	0.515260686358	right	visual	left	visual	target	voice	680.163408309	FALSE	FALSE	FALSE	FALSE	FALSE	0	FALSE	FALSE	TRUE
e02	2015	07	20	14	33	m	21	r	383.654261089	practice	6	1.992265159	0.749752868194	right	tactile	right	tactile	target	voice	635.519382457	FALSE	FALSE	FALSE	FALSE	FALSE	0	FALSE	FALSE	TRUE
e02	2015	07	20	14	33	m	21	r	383.654261089	practice	7	0.466402749007	0.595996248294	right	visual	left	tactile	target	voice	656.518144388	FALSE	FALSE	FALSE	FALSE	FALSE	0	FALSE	FALSE	TRUE
e02	2015	07	20	14	33	m	21	r	383.654261089	practice	8	0.482923238	0.715592723819	right	visual	right	tactile	target	NA	NA	FALSE	FALSE	FALSE	FALSE	TRUE	0	FALSE	FALSE	TRUE
e02	2015	07	20	14	33	m	21	r	383.654261089	practice	9	4.42754920099	0.557733374576	left	tactile	left	visual	target	voice	632.529238093	FALSE	FALSE	FALSE	FALSE	FALSE	0	FALSE	FALSE	TRUE
e02	2015	07	20	14	33	m	21	r	383.654261089	practice	10	0.54067951499	0.676073480424	right	tactile	right	visual	target	voice	140.155229237	FALSE	FALSE	FALSE	FALSE	FALSE	0	FALSE	FALSE	TRUE
e02	2015	07	20	14	33	m	21	r	383.654261089	practice	11	1.00105216401	1.09574760148	right	visual	left	tactile	target	voice	528.336928182	FALSE	FALSE	FALSE	FALSE	FALSE	0	FALSE	FALSE	TRUE
e02	2015	07	20	14	33	m	21	r	383.654261089	practice	12	0.854575837002	1.02499191901	right	visual	right	visual	target	voice	709.235941657	FALSE	FALSE	FALSE	FALSE	TRUE	0	FALSE	FALSE	TRUE
e02	2015	07	20	14	33	m	21	r	383.654261089	practice	13	0.734872116998	1.39985754631	right	visual	right	visual	catch	voice	NA	TRUE	FALSE	FALSE	FALSE	FALSE	0	FALSE	FALSE	FALSE
e02	2015	07	20	14	33	m	21	r	383.654261089	practice	14	3.019286279	0.743804062414	left	tactile	left	tactile	target	voice	778.06168425	FALSE	FALSE	FALSE	FALSE	FALSE	0	FALSE	FALSE	TRUE
e02	2015	07	20	14	33	m	21	r	383.654261089	practice	15	0.446130818993	0.843943079616	right	tactile	left	tactile	target	voice	810.608480053	FALSE	FALSE	FALSE	FALSE	FALSE	0	FALSE	FALSE	TRUE
e02	2015	07	20	14	33	m	21	r	383.654261089	practice	16	0.485305663999	1.35316805629	left	tactile	left	visual	target	voice	551.025909372	FALSE	FALSE	FALSE	FALSE	FALSE	0	FALSE	FALSE	TRUE
e02	2015	07	20	14	33	m	21	r	383.654261089	practice	17	0.577813952012	1.02261802846	left	tactile	right	visual	target	voice	713.79253421	FALSE	FALSE	FALSE	TRUE	TRUE	0	FALSE	FALSE	TRUE
e02	2015	07	20	14	33	m	21	r	383.654261089	practice	18	0.39647893401	1.42577319438	left	visual	right	visual	target	voice	694.919280286	FALSE	FALSE	FALSE	FALSE	FALSE	0	FALSE	FALSE	TRUE
e02	2015	07	20	14	33	m	21	r	383.654261089	practice	19	0.415308861004	0.594943389039	right	visual	right	tactile	target	voice	617.797834624	FALSE	FALSE	FALSE	FALSE	FALSE	0	FALSE	FALSE	TRUE
e02	2015	07	20	14	33	m	21	r	383.654261089	practice	20	1.11235492201	1.44854210655	right	tactile	right	visual	target	voice	582.888981109	FALSE	FALSE	FALSE	FALSE	FALSE	0	FALSE	FALSE	TRUE
e02	2015	07	20	14	33	m	21	r	383.654261089	practice	21	8.413808831	1.48614853257	right	visual	left	visual	target	voice	NA	TRUE	FALSE	FALSE	FALSE	FALSE	0	FALSE	FALSE	FALSE
e02	2015	07	20	14	33	m	21	r	383.654261089	practice	22	1.88084064799	1.21373787546	left	visual	left	visual	target	voice	814.691131207	FALSE	FALSE	FALSE	FALSE	FALSE	0	FALSE	FALSE	TRUE
e02	2015	07	20	14	33	m	21	r	383.654261089	practice	23	0.957631418001	1.42717935246	left	tactile	right	visual	target	voice	557.237366214	FALSE	FALSE	FALSE	TRUE	TRUE	0	TRUE	TRUE	TRUE
e02	2015	07	20	14	33	m	21	r	383.654261089	practice	24	0.504795526998	0.683772282344	right	tactile	left	visual	target	voice	569.070443322	FALSE	FALSE	FALSE	FALSE	FALSE	0	FALSE	FALSE	TRUE
e02	2015	07	20	14	33	m	21	r	383.654261089	practice	25	0.924034890995	1.00939009381	right	tactile	left	visual	target	voice	641.722346845	FALSE	FALSE	FALSE	FALSE	FALSE	0	FALSE	FALSE	TRUE
e02	2015	07	20	14	33	m	21	r	383.654261089	practice	26	0.719354036002	0.847944830157	left	visual	right	tactile	target	voice	505.666370518	FALSE	FALSE	FALSE	FALSE	FALSE	0	FALSE	FALSE	TRUE
e02	2015	07	20	14	33	m	21	r	383.654261089	practice	27	0.466927557994	1.21819397039	right	tactile	left	visual	target	voice	NA	TRUE	FALSE	FALSE	FALSE	FALSE	0	FALSE	FALSE	FALSE
e02	2015	07	20	14	33	m	21	r	383.654261089	practice	28	2.80712703901	1.11430264169	right	visual	left	tactile	target	voice	569.451571981	FALSE	FALSE	FALSE	FALSE	TRUE	0	FALSE	TRUE	TRUE
e02	2015	07	20	14	33	m	21	r	383.654261089	practice	29	0.438039881003	1.2107864282	left	tactile	left	visual	target	voice	665.338746476	FALSE	FALSE	FALSE	FALSE	FALSE	0	FALSE	FALSE	TRUE
e02	2015	07	20	14	33	m	21	r	383.654261089	practice	30	0.519814450992	1.45624569741	left	visual	right	tactile	target	voice	738.453021258	FALSE	FALSE	FALSE	FALSE	FALSE	0	FALSE	FALSE	TRUE
e02	2015	07	20	14	33	m	21	r	383.654261089	practice	31	0.436586501994	1.16699143081	left	visual	left	tactile	target	voice	528.891619848	FALSE	FALSE	FALSE	TRUE	TRUE	0	FALSE	FALSE	TRUE
e02	2015	07	20	14	33	m	21	r	383.654261089	practice	32	0.406584892989	0.725126664156	left	tactile	left	tactile	target	voice	684.430628506	FALSE	FALSE	FALSE	FALSE	FALSE	0	FALSE	FALSE	TRUE
e02	2015	07	20	14	33	m	21	r	383.654261089	practice	33	0.853742731008	1.35349827294	right	tactile	left	tactile	target	voice	132.258596714	FALSE	FALSE	FALSE	FALSE	TRUE	0	FALSE	FALSE	TRUE
e02	2015	07	20	14	33	m	21	r	383.654261089	practice	34	0.574361963998	0.789872367967	right	tactile	right	tactile	target	voice	702.147009695	FALSE	FALSE	FALSE	FALSE	FALSE	0	FALSE	FALSE	TRUE
e02	2015	07	20	14	33	m	21	r	383.654261089	practice	35	0.901520170999	1.03473237641	right	visual	right	tactile	target	voice	789.501004256	FALSE	FALSE	FALSE	FALSE	FALSE	0	FALSE	FALSE	TRUE
e02	2015	07	20	14	33	m	21	r	383.654261089	practice	36	0.502529999008	1.4437934225	left	visual	left	visual	target	voice	702.766151167	FALSE	FALSE	FALSE	FALSE	FALSE	0	FALSE	FALSE	TRUE
e02	2015	07	20	14	33	m	21	r	383.654261089	practice	37	0.404067823009	0.995102448716	left	tactile	left	visual	target	voice	573.22604896	FALSE	FALSE	FALSE	FALSE	FALSE	0	FALSE	FALSE	TRUE
e02	2015	07	20	14	33	m	21	r	383.654261089	practice	38	0.525430918002	1.16439155799	left	visual	left	visual	target	voice	NA	TRUE	FALSE	FALSE	FALSE	FALSE	0	FALSE	FALSE	FALSE
e02	2015	07	20	14	33	m	21	r	383.654261089	practice	39	1.94607295601	1.29103532921	left	tactile	left	tactile	target	voice	607.977040461	FALSE	FALSE	FALSE	FALSE	TRUE	0	FALSE	TRUE	TRUE
e02	2015	07	20	14	33	m	21	r	383.654261089	practice	40	0.412198917998	1.47172028164	left	tactile	left	tactile	target	voice	713.707086034	FALSE	FALSE	FALSE	FALSE	TRUE	0	FALSE	FALSE	TRUE
e02	2015	07	20	14	33	m	21	r	45.061118535	1	1	1.661334459	1.43320296406	left	visual	left	tactile	target	voice	575.142365618	FALSE	FALSE	FALSE	FALSE	TRUE	0	FALSE	TRUE	TRUE
e02	2015	07	20	14	33	m	21	r	45.061118535	1	2	0.437596208998	1.34474138867	right	tactile	left	tactile	target	voice	575.36190399	FALSE	FALSE	FALSE	TRUE	TRUE	0	FALSE	FALSE	TRUE
e02	2015	07	20	14	33	m	21	r	45.061118535	1	3	0.954883896993	0.507500024365	right	visual	left	visual	target	voice	644.264293296	FALSE	FALSE	FALSE	FALSE	FALSE	0	FALSE	FALSE	TRUE
e02	2015	07	20	14	33	m	21	r	45.061118535	1	4	0.390807164003	0.91830500896	left	visual	left	tactile	target	voice	485.662034713	FALSE	FALSE	FALSE	TRUE	TRUE	0	FALSE	FALSE	TRUE
e02	2015	07	20	14	33	m	21	r	45.061118535	1	5	0.47104470199	1.36231894498	left	visual	right	visual	target	voice	414.351933679	FALSE	FALSE	FALSE	FALSE	FALSE	0	FALSE	FALSE	TRUE
e02	2015	07	20	14	33	m	21	r	45.061118535	1	6	0.426009292001	1.34749483753	left	visual	left	tactile	target	voice	497.001854121	FALSE	FALSE	FALSE	TRUE	TRUE	0	FALSE	FALSE	TRUE
e02	2015	07	20	14	33	m	21	r	45.061118535	1	7	1.57387151799	0.602007700444	left	visual	right	tactile	target	voice	420.01993522	FALSE	FALSE	FALSE	FALSE	FALSE	0	FALSE	FALSE	TRUE
e02	2015	07	20	14	33	m	21	r	45.061118535	1	8	1.77432275099	1.40658743458	left	visual	left	visual	target	voice	560.785541078	FALSE	FALSE	FALSE	FALSE	TRUE	0	FALSE	FALSE	TRUE
e02	2015	07	20	14	33	m	21	r	45.061118535	1	9	0.72815477199	1.48494820385	left	visual	left	visual	target	voice	570.106852814	FALSE	FALSE	FALSE	FALSE	FALSE	0	FALSE	FALSE	TRUE
e02	2015	07	20	14	33	m	21	r	45.061118535	1	10	2.13518495801	1.351353494	right	visual	right	tactile	target	voice	467.098283654	FALSE	FALSE	FALSE	FALSE	TRUE	0	FALSE	FALSE	TRUE
e02	2015	07	20	14	33	m	21	r	45.061118535	1	11	0.879274944004	0.935089143961	left	visual	left	visual	target	voice	651.635568705	FALSE	FALSE	FALSE	FALSE	FALSE	0	FALSE	FALSE	TRUE
e02	2015	07	20	14	33	m	21	r	45.061118535	1	12	0.640886694004	1.00695436192	left	tactile	right	visual	target	voice	699.700532758	FALSE	FALSE	FALSE	TRUE	TRUE	0	FALSE	FALSE	TRUE
e02	2015	07	20	14	33	m	21	r	45.061118535	1	13	0.472558645997	0.506560623663	right	visual	left	tactile	target	voice	405.550219992	FALSE	FALSE	FALSE	FALSE	FALSE	0	FALSE	FALSE	TRUE
e02	2015	07	20	14	33	m	21	r	45.061118535	1	14	0.563688942988	0.892589807261	right	tactile	right	visual	target	voice	548.019702401	FALSE	FALSE	FALSE	FALSE	TRUE	0	FALSE	TRUE	TRUE
e02	2015	07	20	14	33	m	21	r	45.061118535	1	15	0.425047843004	0.94384118712	right	tactile	right	visual	target	voice	458.579988539	FALSE	FALSE	FALSE	FALSE	FALSE	0	FALSE	FALSE	TRUE
e02	2015	07	20	14	33	m	21	r	45.061118535	1	16	0.556704464994	1.10882814811	right	tactile	left	visual	catch	NA	NA	FALSE	FALSE	FALSE	FALSE	FALSE	0	FALSE	FALSE	TRUE
e02	2015	07	20	14	33	m	21	r	45.061118535	1	17	2.377315359	1.29764253037	left	tactile	left	visual	target	voice	578.005763295	FALSE	FALSE	FALSE	FALSE	FALSE	0	FALSE	FALSE	TRUE
e02	2015	07	20	14	33	m	21	r	45.061118535	1	18	2.35741889401	1.36805909522	right	visual	left	visual	target	voice	NA	TRUE	FALSE	FALSE	FALSE	FALSE	0	FALSE	FALSE	FALSE
e02	2015	07	20	14	33	m	21	r	45.061118535	1	19	2.95714222401	1.0883082	right	visual	left	visual	target	voice	737.209664658	FALSE	FALSE	FALSE	FALSE	FALSE	0	FALSE	FALSE	TRUE
e02	2015	07	20	14	33	m	21	r	45.061118535	1	20	2.09489805199	0.853180712436	left	tactile	left	tactile	target	voice	554.425557217	FALSE	FALSE	FALSE	FALSE	FALSE	0	FALSE	FALSE	TRUE
e02	2015	07	20	14	33	m	21	r	45.061118535	1	21	0.613410599995	0.990748486281	left	tactile	left	tactile	target	voice	541.596867377	FALSE	FALSE	FALSE	FALSE	FALSE	0	FALSE	FALSE	TRUE
e02	2015	07	20	14	33	m	21	r	45.061118535	1	22	0.590806339998	1.1458349333	left	tactile	left	visual	target	voice	531.109663367	FALSE	FALSE	FALSE	FALSE	TRUE	0	FALSE	TRUE	TRUE
e02	2015	07	20	14	33	m	21	r	45.061118535	1	23	0.436093188997	1.02415716851	left	tactile	left	tactile	target	voice	562.476455147	FALSE	FALSE	FALSE	TRUE	TRUE	0	FALSE	FALSE	TRUE
e02	2015	07	20	14	33	m	21	r	45.061118535	1	24	0.829636662995	1.00279890484	right	visual	right	tactile	target	voice	466.901606822	FALSE	FALSE	FALSE	FALSE	FALSE	0	FALSE	FALSE	TRUE
e02	2015	07	20	14	33	m	21	r	45.061118535	1	25	0.623264408001	1.43016846136	right	tactile	right	visual	catch	NA	NA	FALSE	FALSE	FALSE	FALSE	FALSE	0	FALSE	FALSE	TRUE
e02	2015	07	20	14	33	m	21	r	45.061118535	1	26	1.29438659601	1.01482798477	right	visual	left	visual	target	voice	564.276820893	FALSE	FALSE	FALSE	FALSE	FALSE	0	FALSE	FALSE	TRUE
e02	2015	07	20	14	33	m	21	r	45.061118535	1	27	0.556970962003	1.09176506988	right	tactile	left	tactile	target	voice	576.975425778	FALSE	FALSE	FALSE	FALSE	TRUE	0	FALSE	FALSE	TRUE
e02	2015	07	20	14	33	m	21	r	45.061118535	1	28	0.529810202992	0.870812634338	right	tactile	right	tactile	target	voice	509.119589318	FALSE	FALSE	FALSE	FALSE	FALSE	0	FALSE	FALSE	TRUE
e02	2015	07	20	14	33	m	21	r	45.061118535	1	29	0.744163846	1.05543989579	right	tactile	right	tactile	target	voice	583.680108874	FALSE	FALSE	FALSE	FALSE	FALSE	0	FALSE	FALSE	TRUE
e02	2015	07	20	14	33	m	21	r	45.061118535	1	30	0.492525304013	1.06209610874	left	tactile	left	visual	target	voice	635.632220932	FALSE	FALSE	FALSE	FALSE	TRUE	0	FALSE	TRUE	TRUE
e02	2015	07	20	14	33	m	21	r	45.061118535	1	31	0.484516665005	1.31338182675	right	visual	right	visual	target	voice	573.52929491	FALSE	FALSE	FALSE	FALSE	FALSE	0	FALSE	FALSE	TRUE
e02	2015	07	20	14	33	m	21	r	45.061118535	1	32	0.408860904005	1.18212500117	right	tactile	right	visual	target	voice	545.780175496	FALSE	FALSE	FALSE	TRUE	TRUE	0	FALSE	FALSE	TRUE
e02	2015	07	20	14	33	m	21	r	45.061118535	1	33	0.398496784997	0.641301153303	right	tactile	left	visual	target	voice	505.205212365	FALSE	FALSE	FALSE	TRUE	TRUE	0	FALSE	FALSE	TRUE
e02	2015	07	20	14	33	m	21	r	45.061118535	1	34	0.459523997008	1.11106099708	right	visual	right	visual	target	voice	465.728222582	FALSE	FALSE	FALSE	FALSE	TRUE	0	FALSE	FALSE	TRUE
e02	2015	07	20	14	33	m	21	r	45.061118535	1	35	0.412553493006	1.11878824901	right	visual	right	visual	target	voice	483.152392655	FALSE	FALSE	FALSE	FALSE	TRUE	0	FALSE	FALSE	TRUE
e02	2015	07	20	14	33	m	21	r	45.061118535	1	36	0.422259757994	1.42340479243	left	tactile	left	visual	target	voice	485.227178244	FALSE	FALSE	FALSE	FALSE	TRUE	0	FALSE	FALSE	TRUE
e02	2015	07	20	14	33	m	21	r	45.061118535	1	37	0.413662716004	1.02131449865	right	visual	right	tactile	target	voice	523.512481013	FALSE	FALSE	FALSE	FALSE	FALSE	0	FALSE	FALSE	TRUE
e02	2015	07	20	14	33	m	21	r	45.061118535	1	38	1.404005894	0.625332980867	left	visual	left	tactile	target	voice	467.763449793	FALSE	FALSE	FALSE	FALSE	TRUE	0	FALSE	TRUE	TRUE
e02	2015	07	20	14	33	m	21	r	45.061118535	1	39	0.508927488991	1.16997574104	right	tactile	left	tactile	catch	NA	NA	FALSE	FALSE	FALSE	TRUE	TRUE	0	TRUE	TRUE	TRUE
e02	2015	07	20	14	33	m	21	r	45.061118535	1	40	1.286390846	0.891783484207	left	tactile	right	tactile	target	voice	448.252034446	FALSE	FALSE	FALSE	FALSE	TRUE	0	FALSE	TRUE	TRUE
e02	2015	07	20	14	33	m	21	r	35.356792823	1	41	0.915228960992	0.511851421604	right	visual	left	tactile	target	voice	NA	TRUE	FALSE	FALSE	FALSE	FALSE	0	FALSE	FALSE	FALSE
e02	2015	07	20	14	33	m	21	r	35.356792823	1	42	1.146939007	0.910256610418	right	tactile	right	tactile	target	voice	585.137304253	FALSE	FALSE	FALSE	FALSE	TRUE	0	FALSE	TRUE	TRUE
e02	2015	07	20	14	33	m	21	r	35.356792823	1	43	0.512423158012	0.929846217525	left	visual	right	visual	target	voice	601.973065131	FALSE	FALSE	FALSE	FALSE	FALSE	0	FALSE	FALSE	TRUE
e02	2015	07	20	14	33	m	21	r	35.356792823	1	44	1.26174956899	1.29639700534	right	visual	right	visual	target	voice	210.583491324	FALSE	FALSE	FALSE	FALSE	FALSE	0	FALSE	FALSE	TRUE
e02	2015	07	20	14	33	m	21	r	35.356792823	1	45	1.846616029	1.13479488526	right	visual	left	tactile	target	voice	631.472697394	FALSE	FALSE	FALSE	FALSE	FALSE	0	FALSE	FALSE	TRUE
e02	2015	07	20	14	33	m	21	r	35.356792823	1	46	1.81722384	0.662123538467	right	visual	left	visual	target	voice	602.23973119	FALSE	FALSE	FALSE	FALSE	TRUE	0	FALSE	FALSE	TRUE
e02	2015	07	20	14	33	m	21	r	35.356792823	1	47	0.478061777991	0.990324331128	left	visual	right	tactile	target	voice	504.924200548	FALSE	FALSE	FALSE	TRUE	TRUE	0	FALSE	FALSE	TRUE
e02	2015	07	20	14	33	m	21	r	35.356792823	1	48	0.485646068002	1.08013941794	right	visual	left	visual	target	voice	352.944196726	FALSE	FALSE	FALSE	FALSE	TRUE	0	FALSE	FALSE	TRUE
e02	2015	07	20	14	33	m	21	r	35.356792823	1	49	0.404692448006	0.531532507743	left	visual	right	tactile	target	voice	363.679828923	FALSE	FALSE	FALSE	FALSE	FALSE	0	FALSE	FALSE	TRUE
e02	2015	07	20	14	33	m	21	r	35.356792823	1	50	1.49962171601	0.860375457197	left	tactile	left	tactile	catch	NA	NA	FALSE	FALSE	FALSE	FALSE	FALSE	0	FALSE	FALSE	TRUE
e02	2015	07	20	14	33	m	21	r	35.356792823	1	51	1.592353421	1.45924859099	right	tactile	right	visual	target	voice	515.57288866	FALSE	FALSE	FALSE	FALSE	FALSE	0	FALSE	FALSE	TRUE
e02	2015	07	20	14	33	m	21	r	35.356792823	1	52	2.269727616	0.778541531732	left	tactile	right	visual	target	voice	363.193321929	FALSE	FALSE	FALSE	FALSE	FALSE	0	FALSE	FALSE	TRUE
e02	2015	07	20	14	33	m	21	r	35.356792823	1	53	3.00309732501	1.25056263733	right	visual	right	tactile	target	voice	383.474500326	FALSE	FALSE	FALSE	FALSE	FALSE	0	FALSE	FALSE	TRUE
e02	2015	07	20	14	33	m	21	r	35.356792823	1	54	0.818178711997	0.99396096859	left	visual	left	tactile	catch	NA	NA	FALSE	FALSE	FALSE	FALSE	TRUE	0	FALSE	FALSE	TRUE
e02	2015	07	20	14	33	m	21	r	35.356792823	1	55	3.29714731401	0.513102108006	right	visual	left	tactile	target	voice	NA	TRUE	FALSE	FALSE	FALSE	FALSE	0	FALSE	FALSE	FALSE
e02	2015	07	20	14	33	m	21	r	35.356792823	1	56	4.305892473	0.942714186711	left	visual	right	visual	target	voice	NA	TRUE	FALSE	FALSE	FALSE	FALSE	0	FALSE	FALSE	FALSE
e02	2015	07	20	14	33	m	21	r	35.356792823	1	57	13.6762036	1.30776102437	left	visual	right	visual	target	voice	584.532203298	FALSE	FALSE	FALSE	FALSE	TRUE	0	FALSE	TRUE	TRUE
e02	2015	07	20	14	33	m	21	r	35.356792823	1	58	0.579113459011	1.05219618475	left	tactile	right	tactile	target	voice	404.958925908	FALSE	FALSE	FALSE	FALSE	TRUE	0	FALSE	FALSE	TRUE
e02	2015	07	20	14	33	m	21	r	35.356792823	1	59	10.336318812	0.796906642544	left	tactile	left	visual	target	voice	501.804132116	FALSE	FALSE	FALSE	FALSE	FALSE	0	FALSE	FALSE	TRUE
e02	2015	07	20	14	33	m	21	r	35.356792823	1	60	0.502542355011	1.18135479636	right	tactile	left	visual	target	voice	446.532583301	FALSE	FALSE	FALSE	FALSE	TRUE	0	FALSE	FALSE	TRUE
e02	2015	07	20	14	33	m	21	r	35.356792823	1	61	0.496763796997	1.42612160258	left	visual	left	visual	target	voice	507.975986082	FALSE	FALSE	FALSE	FALSE	FALSE	0	FALSE	FALSE	TRUE
e02	2015	07	20	14	33	m	21	r	35.356792823	1	62	0.483975875002	1.28605694378	left	visual	left	tactile	target	voice	407.154645887	FALSE	FALSE	FALSE	FALSE	TRUE	0	FALSE	FALSE	TRUE
e02	2015	07	20	14	33	m	21	r	35.356792823	1	63	0.688560757	0.593346637809	right	visual	right	tactile	target	voice	414.793119853	FALSE	FALSE	FALSE	FALSE	FALSE	0	FALSE	FALSE	TRUE
e02	2015	07	20	14	33	m	21	r	35.356792823	1	64	0.774451771998	1.16039517215	right	tactile	left	tactile	target	voice	533.01672751	FALSE	FALSE	FALSE	FALSE	TRUE	0	FALSE	FALSE	TRUE
e02	2015	07	20	14	33	m	21	r	35.356792823	1	65	0.499700615997	1.33375328006	left	tactile	right	visual	catch	NA	NA	FALSE	FALSE	FALSE	FALSE	FALSE	0	FALSE	FALSE	TRUE
e02	2015	07	20	14	33	m	21	r	35.356792823	1	66	1.210355202	1.38877209995	left	tactile	left	tactile	target	voice	441.787269709	FALSE	FALSE	FALSE	FALSE	FALSE	0	FALSE	FALSE	TRUE
e02	2015	07	20	14	33	m	21	r	35.356792823	1	67	0.695980887001	0.984558048376	right	tactile	right	tactile	target	voice	452.484698282	FALSE	FALSE	FALSE	FALSE	TRUE	0	FALSE	FALSE	TRUE
e02	2015	07	20	14	33	m	21	r	35.356792823	1	68	0.490635017995	0.661659161401	left	visual	right	visual	target	voice	484.691927268	FALSE	FALSE	FALSE	FALSE	TRUE	0	FALSE	TRUE	TRUE
e02	2015	07	20	14	33	m	21	r	35.356792823	1	69	0.509053062997	0.786193710557	left	visual	left	visual	target	voice	476.823021105	FALSE	FALSE	FALSE	FALSE	TRUE	0	FALSE	FALSE	TRUE
e02	2015	07	20	14	33	m	21	r	35.356792823	1	70	0.512496029987	1.18243931521	left	visual	left	visual	target	voice	458.244673457	FALSE	FALSE	FALSE	FALSE	FALSE	0	FALSE	FALSE	TRUE
e02	2015	07	20	14	33	m	21	r	35.356792823	1	71	0.415575002	1.48316484367	right	visual	left	tactile	target	voice	517.582072993	FALSE	FALSE	FALSE	FALSE	TRUE	0	FALSE	FALSE	TRUE
e02	2015	07	20	14	33	m	21	r	35.356792823	1	72	2.39971182699	1.30518006409	left	visual	right	visual	target	voice	388.534287558	FALSE	FALSE	FALSE	FALSE	FALSE	0	FALSE	FALSE	TRUE
e02	2015	07	20	14	33	m	21	r	35.356792823	1	73	0.504076775003	1.39194344566	left	visual	right	tactile	target	voice	453.181418998	FALSE	FALSE	FALSE	TRUE	TRUE	0	FALSE	FALSE	TRUE
e02	2015	07	20	14	33	m	21	r	35.356792823	1	74	2.134500078	0.831772803614	right	visual	left	tactile	target	voice	400.364113055	FALSE	FALSE	FALSE	FALSE	FALSE	0	FALSE	FALSE	TRUE
e02	2015	07	20	14	33	m	21	r	35.356792823	1	75	0.820063302002	0.507360418015	right	tactile	right	tactile	catch	NA	NA	FALSE	FALSE	FALSE	FALSE	FALSE	0	FALSE	FALSE	TRUE
e02	2015	07	20	14	33	m	21	r	35.356792823	1	76	1.365170912	0.553132966199	left	visual	right	tactile	target	voice	394.202633455	FALSE	FALSE	FALSE	FALSE	TRUE	0	FALSE	FALSE	TRUE
e02	2015	07	20	14	33	m	21	r	35.356792823	1	77	0.945242696995	1.21433014394	left	tactile	right	tactile	target	voice	473.565779728	FALSE	FALSE	FALSE	FALSE	FALSE	0	FALSE	FALSE	TRUE
e02	2015	07	20	14	33	m	21	r	35.356792823	1	78	0.586194596995	0.556757630047	right	tactile	left	visual	target	voice	517.124654609	FALSE	FALSE	FALSE	FALSE	FALSE	0	FALSE	FALSE	TRUE
e02	2015	07	20	14	33	m	21	r	35.356792823	1	79	1.59076155099	1.28776871532	left	visual	right	tactile	catch	NA	NA	FALSE	FALSE	FALSE	FALSE	FALSE	0	FALSE	FALSE	TRUE
e02	2015	07	20	14	33	m	21	r	35.356792823	1	80	0.823547830994	1.29077524384	left	visual	left	tactile	target	voice	540.696846831	FALSE	FALSE	FALSE	FALSE	FALSE	0	FALSE	FALSE	TRUE
e02	2015	07	20	14	33	m	21	r	21.155056493	1	81	1.35526329	1.12252427264	left	tactile	right	tactile	target	voice	NA	TRUE	FALSE	FALSE	FALSE	TRUE	0	FALSE	FALSE	FALSE
e02	2015	07	20	14	33	m	21	r	21.155056493	1	82	0.884142726005	1.21445555284	left	tactile	right	visual	target	voice	464.027012829	FALSE	FALSE	FALSE	FALSE	FALSE	0	FALSE	FALSE	TRUE
e02	2015	07	20	14	33	m	21	r	21.155056493	1	83	0.661657903998	1.05171762476	left	visual	left	tactile	target	voice	480.78092291	FALSE	FALSE	FALSE	FALSE	FALSE	0	FALSE	FALSE	TRUE
e02	2015	07	20	14	33	m	21	r	21.155056493	1	84	1.326686329	1.38264896364	left	tactile	left	visual	target	voice	550.035858018	FALSE	FALSE	FALSE	FALSE	TRUE	0	FALSE	TRUE	TRUE
e02	2015	07	20	14	33	m	21	r	21.155056493	1	85	0.759401360003	1.29244763618	right	visual	left	visual	target	voice	449.968167479	FALSE	FALSE	FALSE	FALSE	TRUE	0	FALSE	FALSE	TRUE
e02	2015	07	20	14	33	m	21	r	21.155056493	1	86	0.626570648994	0.799322862031	left	tactile	left	tactile	target	voice	615.299994621	FALSE	FALSE	FALSE	FALSE	TRUE	0	FALSE	FALSE	TRUE
e02	2015	07	20	14	33	m	21	r	21.155056493	1	87	0.557466516999	1.13251525097	right	tactile	right	tactile	target	voice	465.5797757	FALSE	FALSE	FALSE	FALSE	TRUE	0	FALSE	FALSE	TRUE
e02	2015	07	20	14	33	m	21	r	21.155056493	1	88	0.621148006991	1.01644857834	left	tactile	right	visual	target	voice	365.42165032	FALSE	FALSE	FALSE	FALSE	FALSE	0	FALSE	FALSE	TRUE
e02	2015	07	20	14	33	m	21	r	21.155056493	1	89	0.698433912999	0.741550374843	left	visual	right	visual	catch	NA	NA	FALSE	FALSE	FALSE	TRUE	TRUE	0	FALSE	TRUE	TRUE
e02	2015	07	20	14	33	m	21	r	21.155056493	1	90	1.255941268	0.908905843517	left	visual	right	visual	target	voice	505.085626151	FALSE	FALSE	FALSE	FALSE	TRUE	0	FALSE	FALSE	TRUE
e02	2015	07	20	14	33	m	21	r	21.155056493	1	91	2.37017822301	1.4909396809	right	tactile	right	visual	target	voice	406.920038775	FALSE	FALSE	FALSE	FALSE	FALSE	0	FALSE	FALSE	TRUE
e02	2015	07	20	14	33	m	21	r	21.155056493	1	92	0.686597086009	0.561093256459	left	tactile	right	visual	target	voice	592.920091192	FALSE	FALSE	FALSE	FALSE	FALSE	0	FALSE	FALSE	TRUE
e02	2015	07	20	14	33	m	21	r	21.155056493	1	93	0.589861472006	0.87335371527	right	tactile	left	tactile	target	voice	378.120396388	FALSE	FALSE	FALSE	FALSE	FALSE	0	FALSE	FALSE	TRUE
e02	2015	07	20	14	33	m	21	r	21.155056493	1	94	0.661313659002	1.49873404739	right	tactile	right	tactile	target	voice	524.118990274	FALSE	FALSE	FALSE	FALSE	TRUE	0	FALSE	FALSE	TRUE
e02	2015	07	20	14	33	m	21	r	21.155056493	1	95	1.932358784	0.693317911315	right	tactile	left	visual	target	voice	448.429516342	FALSE	FALSE	FALSE	FALSE	TRUE	0	FALSE	FALSE	TRUE
e02	2015	07	20	14	33	m	21	r	21.155056493	1	96	2.829126325	1.1180734899	left	visual	left	tactile	target	voice	435.811995761	FALSE	FALSE	FALSE	FALSE	TRUE	0	FALSE	FALSE	TRUE
e02	2015	07	20	14	33	m	21	r	21.155056493	1	97	2.184360186	1.28312691685	right	tactile	left	tactile	target	voice	478.285835808	FALSE	FALSE	FALSE	FALSE	FALSE	0	FALSE	FALSE	TRUE
e02	2015	07	20	14	33	m	21	r	21.155056493	1	98	1.340753907	0.921670957453	left	visual	left	visual	target	voice	600.938264208	FALSE	FALSE	FALSE	TRUE	FALSE	0	FALSE	FALSE	TRUE
e02	2015	07	20	14	33	m	21	r	21.155056493	1	99	0.668634782007	1.35503684548	left	tactile	right	tactile	catch	NA	NA	FALSE	FALSE	FALSE	FALSE	TRUE	0	FALSE	FALSE	TRUE
e02	2015	07	20	14	33	m	21	r	21.155056493	1	100	1.42199343101	1.0412600883	left	tactile	left	tactile	target	voice	454.477258361	FALSE	FALSE	FALSE	FALSE	FALSE	0	FALSE	FALSE	TRUE
e02	2015	07	20	14	33	m	21	r	21.155056493	1	101	3.251411889	1.15886250511	right	tactile	right	tactile	target	voice	461.922456554	FALSE	FALSE	FALSE	FALSE	TRUE	0	FALSE	FALSE	TRUE
e02	2015	07	20	14	33	m	21	r	21.155056493	1	102	2.357714389	0.516730465704	right	tactile	right	visual	target	voice	491.719844955	FALSE	FALSE	FALSE	FALSE	FALSE	0	FALSE	FALSE	TRUE
e02	2015	07	20	14	33	m	21	r	21.155056493	1	103	7.036581284	1.38797560857	right	visual	right	visual	target	voice	NA	TRUE	FALSE	FALSE	TRUE	TRUE	0	FALSE	FALSE	FALSE
e02	2015	07	20	14	33	m	21	r	21.155056493	1	104	7.02706086	1.26509057224	right	visual	right	tactile	target	voice	319.626409429	FALSE	FALSE	FALSE	FALSE	TRUE	0	FALSE	TRUE	TRUE
e02	2015	07	20	14	33	m	21	r	21.155056493	1	105	51.528547409	1.06281738029	right	visual	right	tactile	target	voice	406.631431368	FALSE	FALSE	FALSE	TRUE	FALSE	0	FALSE	FALSE	TRUE
e02	2015	07	20	14	33	m	21	r	21.155056493	1	106	1.320728208	1.00251865156	left	tactile	right	tactile	target	voice	385.770703113	FALSE	FALSE	FALSE	FALSE	FALSE	0	FALSE	FALSE	TRUE
e02	2015	07	20	14	33	m	21	r	21.155056493	1	107	2.647573365	0.800945970272	left	visual	right	tactile	target	voice	395.914578388	FALSE	FALSE	FALSE	FALSE	FALSE	0	FALSE	FALSE	TRUE
e02	2015	07	20	14	33	m	21	r	21.155056493	1	108	1.210560052	0.826533706869	left	visual	left	visual	catch	NA	NA	FALSE	FALSE	FALSE	FALSE	FALSE	0	FALSE	FALSE	TRUE
e02	2015	07	20	14	33	m	21	r	21.155056493	1	109	1.53543305901	0.523508353102	right	visual	right	tactile	catch	NA	NA	FALSE	FALSE	FALSE	FALSE	FALSE	0	FALSE	FALSE	TRUE
e02	2015	07	20	14	33	m	21	r	21.155056493	1	110	0.74927916599	1.47713645064	left	visual	right	visual	target	voice	400.177373012	FALSE	FALSE	FALSE	FALSE	FALSE	0	FALSE	FALSE	TRUE
e02	2015	07	20	14	33	m	21	r	21.155056493	1	111	1.166679025	1.47909041051	right	visual	right	visual	catch	NA	NA	FALSE	FALSE	FALSE	FALSE	FALSE	0	FALSE	FALSE	TRUE
e02	2015	07	20	14	33	m	21	r	21.155056493	1	112	1.250343894	0.564216539048	right	tactile	right	visual	target	voice	477.302351617	FALSE	FALSE	FALSE	FALSE	FALSE	0	FALSE	FALSE	TRUE
e02	2015	07	20	14	33	m	21	r	21.155056493	1	113	1.968527391	0.750289196271	right	visual	left	tactile	target	voice	425.210900401	FALSE	FALSE	FALSE	FALSE	TRUE	0	FALSE	FALSE	TRUE
e02	2015	07	20	14	33	m	21	r	21.155056493	1	114	1.11261746399	0.584153428646	right	tactile	left	tactile	target	voice	464.364565007	FALSE	FALSE	FALSE	FALSE	FALSE	0	FALSE	FALSE	TRUE
e02	2015	07	20	14	33	m	21	r	21.155056493	1	115	1.092593261	0.786917175145	right	visual	left	visual	target	voice	398.459856515	FALSE	FALSE	FALSE	FALSE	FALSE	0	FALSE	FALSE	TRUE
e02	2015	07	20	14	33	m	21	r	21.155056493	1	116	1.981611849	1.42982443234	left	tactile	left	tactile	target	voice	455.761548335	FALSE	FALSE	FALSE	TRUE	TRUE	0	FALSE	FALSE	TRUE
e02	2015	07	20	14	33	m	21	r	21.155056493	1	117	1.108476013	0.711045832524	right	visual	right	visual	target	voice	435.722560156	FALSE	FALSE	FALSE	FALSE	FALSE	0	FALSE	FALSE	TRUE
e02	2015	07	20	14	33	m	21	r	21.155056493	1	118	1.124467799	0.561995152182	left	tactile	right	visual	target	voice	460.133877481	FALSE	FALSE	FALSE	FALSE	TRUE	0	FALSE	TRUE	TRUE
e02	2015	07	20	14	33	m	21	r	21.155056493	1	119	4.49410815601	1.42696570139	right	tactile	left	visual	target	voice	439.972503271	FALSE	FALSE	FALSE	FALSE	TRUE	0	FALSE	TRUE	TRUE
e02	2015	07	20	14	33	m	21	r	21.155056493	1	120	5.048676124	1.2163914959	right	visual	left	visual	catch	NA	NA	FALSE	FALSE	FALSE	FALSE	FALSE	0	FALSE	FALSE	TRUE
e02	2015	07	20	14	33	m	21	r	27.815788265	1	121	3.073261866	1.21984405355	right	tactile	left	visual	target	voice	415.824086129	FALSE	FALSE	FALSE	FALSE	TRUE	0	FALSE	FALSE	TRUE
e02	2015	07	20	14	33	m	21	r	27.815788265	1	122	1.014774968	1.3758875759	left	tactile	right	tactile	target	voice	391.917855755	FALSE	FALSE	FALSE	FALSE	TRUE	0	FALSE	FALSE	TRUE
e02	2015	07	20	14	33	m	21	r	27.815788265	1	123	1.281307183	1.03587972537	left	tactile	left	visual	target	voice	472.137876292	FALSE	FALSE	FALSE	FALSE	FALSE	0	FALSE	FALSE	TRUE
e02	2015	07	20	14	33	m	21	r	27.815788265	1	124	9.056961422	0.554299076631	left	tactile	right	visual	target	voice	NA	TRUE	FALSE	FALSE	FALSE	FALSE	0	FALSE	FALSE	FALSE
e02	2015	07	20	14	33	m	21	r	27.815788265	1	125	0.614048425996	0.87066010818	left	visual	left	visual	target	voice	498.385873478	FALSE	FALSE	FALSE	FALSE	TRUE	0	FALSE	FALSE	TRUE
e02	2015	07	20	14	33	m	21	r	27.815788265	1	126	6.069213308	1.34096276548	right	visual	left	visual	target	voice	425.448560185	FALSE	FALSE	FALSE	FALSE	TRUE	0	FALSE	FALSE	TRUE
e02	2015	07	20	14	33	m	21	r	27.815788265	1	127	2.93693339999	0.742494058488	right	tactile	right	visual	target	voice	686.47610418	FALSE	FALSE	FALSE	FALSE	FALSE	0	FALSE	FALSE	TRUE
e02	2015	07	20	14	33	m	21	r	27.815788265	1	128	3.258341553	0.809367854349	left	tactile	left	visual	target	voice	416.791097319	FALSE	FALSE	FALSE	FALSE	FALSE	0	FALSE	FALSE	TRUE
e02	2015	07	20	14	33	m	21	r	27.815788265	1	129	1.32768869901	0.582705788766	right	visual	left	tactile	target	voice	485.806231896	FALSE	FALSE	FALSE	FALSE	FALSE	0	FALSE	FALSE	TRUE
e02	2015	07	20	14	33	m	21	r	27.815788265	1	130	1.73539486401	1.42767066876	right	tactile	left	visual	target	voice	394.733877911	FALSE	FALSE	FALSE	FALSE	FALSE	0	FALSE	FALSE	TRUE
e02	2015	07	20	14	33	m	21	r	27.815788265	1	131	1.57678859899	0.650952695059	right	visual	right	tactile	target	voice	379.320873602	FALSE	FALSE	FALSE	FALSE	FALSE	0	FALSE	FALSE	TRUE
e02	2015	07	20	14	33	m	21	r	27.815788265	1	132	1.89456260801	0.884005871939	right	visual	left	tactile	catch	NA	NA	FALSE	FALSE	FALSE	FALSE	TRUE	0	FALSE	FALSE	TRUE
e02	2015	07	20	14	33	m	21	r	27.815788265	1	133	1.20749973999	1.28576605723	right	tactile	left	visual	target	voice	328.716476433	FALSE	FALSE	FALSE	FALSE	TRUE	0	FALSE	FALSE	TRUE
e02	2015	07	20	14	33	m	21	r	27.815788265	1	134	1.304087917	0.737013278138	right	tactile	right	visual	target	voice	469.739956519	FALSE	FALSE	FALSE	TRUE	FALSE	0	FALSE	FALSE	TRUE
e02	2015	07	20	14	33	m	21	r	27.815788265	1	135	1.408162487	0.674314123362	right	visual	right	visual	target	voice	427.626470308	FALSE	FALSE	FALSE	FALSE	FALSE	0	FALSE	FALSE	TRUE
e02	2015	07	20	14	33	m	21	r	27.815788265	1	136	1.45185621599	0.785033827385	right	tactile	left	tactile	target	voice	381.119809288	FALSE	FALSE	FALSE	FALSE	FALSE	0	FALSE	FALSE	TRUE
e02	2015	07	20	14	33	m	21	r	27.815788265	1	137	1.22007995199	0.793518344771	left	visual	left	tactile	target	voice	361.06629089	FALSE	FALSE	FALSE	FALSE	FALSE	0	FALSE	FALSE	TRUE
e02	2015	07	20	14	33	m	21	r	27.815788265	1	138	1.447532199	0.905257825743	left	tactile	left	visual	catch	NA	NA	FALSE	FALSE	FALSE	TRUE	TRUE	0	FALSE	TRUE	TRUE
e02	2015	07	20	14	33	m	21	r	27.815788265	1	139	1.68646471099	1.48000447149	right	tactile	left	tactile	target	voice	348.404675184	FALSE	FALSE	FALSE	FALSE	FALSE	0	FALSE	FALSE	TRUE
e02	2015	07	20	14	33	m	21	r	27.815788265	1	140	1.31932506901	0.509914860441	left	tactile	left	visual	target	voice	495.822623227	FALSE	FALSE	FALSE	FALSE	TRUE	0	FALSE	TRUE	TRUE
e02	2015	07	20	14	33	m	21	r	27.815788265	1	141	1.250238095	0.61145454384	left	tactile	left	tactile	target	voice	407.794924817	FALSE	FALSE	FALSE	FALSE	FALSE	0	FALSE	FALSE	TRUE
e02	2015	07	20	14	33	m	21	r	27.815788265	1	142	1.421698558	1.25587017165	left	tactile	right	visual	target	voice	356.719994015	FALSE	FALSE	FALSE	FALSE	FALSE	0	FALSE	FALSE	TRUE
e02	2015	07	20	14	33	m	21	r	27.815788265	1	143	2.15871705	0.785418710197	right	visual	right	visual	target	voice	413.57475947	FALSE	FALSE	FALSE	FALSE	FALSE	0	FALSE	FALSE	TRUE
e02	2015	07	20	14	33	m	21	r	27.815788265	1	144	4.31434533799	1.24681932144	right	visual	right	tactile	target	voice	413.829856217	FALSE	FALSE	FALSE	FALSE	FALSE	0	FALSE	FALSE	TRUE
e02	2015	07	20	14	33	m	21	r	27.815788265	1	145	2.08428197401	1.04945333489	left	tactile	right	visual	target	voice	409.57595878	FALSE	FALSE	FALSE	FALSE	TRUE	0	FALSE	FALSE	TRUE
e02	2015	07	20	14	33	m	21	r	27.815788265	1	146	1.547532711	1.23847412888	right	visual	right	visual	target	voice	586.934418781	FALSE	FALSE	FALSE	FALSE	FALSE	0	FALSE	FALSE	TRUE
e02	2015	07	20	14	33	m	21	r	27.815788265	1	147	1.486423875	1.27344320638	left	visual	right	tactile	target	voice	280.776779284	FALSE	FALSE	FALSE	FALSE	TRUE	0	FALSE	FALSE	TRUE
e02	2015	07	20	14	33	m	21	r	27.815788265	1	148	1.86976948399	0.784012336128	right	visual	left	tactile	target	voice	280.931255547	FALSE	FALSE	FALSE	FALSE	FALSE	0	FALSE	FALSE	TRUE
e02	2015	07	20	14	33	m	21	r	27.815788265	1	149	1.40484010401	0.722630042939	right	tactile	right	tactile	target	voice	370.30215672	FALSE	FALSE	FALSE	FALSE	TRUE	0	FALSE	TRUE	TRUE
e02	2015	07	20	14	33	m	21	r	27.815788265	1	150	1.574093738	1.09772850839	left	visual	right	tactile	target	voice	240.983386262	FALSE	FALSE	FALSE	FALSE	FALSE	0	FALSE	FALSE	TRUE
e02	2015	07	20	14	33	m	21	r	27.815788265	1	151	1.629787959	0.508319162628	left	tactile	right	tactile	target	voice	251.191301024	FALSE	FALSE	FALSE	FALSE	FALSE	0	FALSE	FALSE	TRUE
e02	2015	07	20	14	33	m	21	r	27.815788265	1	152	5.249239639	0.738044918612	right	tactile	right	tactile	target	voice	380.543519044	FALSE	FALSE	FALSE	FALSE	FALSE	0	FALSE	FALSE	TRUE
e02	2015	07	20	14	33	m	21	r	27.815788265	1	153	3.03414504901	0.771980388056	left	visual	right	tactile	target	voice	380.103464602	FALSE	FALSE	FALSE	FALSE	TRUE	0	FALSE	TRUE	TRUE
e02	2015	07	20	14	33	m	21	r	27.815788265	1	154	1.70948552599	1.42467125511	left	visual	right	visual	target	voice	377.386287553	FALSE	FALSE	FALSE	FALSE	FALSE	0	FALSE	FALSE	TRUE
e02	2015	07	20	14	33	m	21	r	27.815788265	1	155	1.290320919	0.832603691197	left	tactile	right	tactile	target	voice	341.121022459	FALSE	FALSE	FALSE	FALSE	FALSE	0	FALSE	FALSE	TRUE
e02	2015	07	20	14	33	m	21	r	27.815788265	1	156	2.39046834799	0.558393672013	left	tactile	left	tactile	target	voice	462.303684661	FALSE	FALSE	FALSE	FALSE	FALSE	0	FALSE	FALSE	TRUE
e02	2015	07	20	14	33	m	21	r	27.815788265	1	157	1.66155321	1.09721109551	left	visual	left	visual	target	voice	439.843867163	FALSE	FALSE	FALSE	FALSE	FALSE	0	FALSE	FALSE	TRUE
e02	2015	07	20	14	33	m	21	r	27.815788265	1	158	1.55848999599	0.848003190205	left	tactile	right	tactile	target	voice	275.303081464	FALSE	FALSE	FALSE	FALSE	FALSE	0	FALSE	FALSE	TRUE
e02	2015	07	20	14	33	m	21	r	27.815788265	1	159	2.23477907799	1.12555480584	right	tactile	left	visual	target	voice	NA	TRUE	FALSE	FALSE	FALSE	FALSE	0	FALSE	FALSE	FALSE
e02	2015	07	20	14	33	m	21	r	27.815788265	1	160	1.03476987399	0.620056785012	right	tactile	left	tactile	target	voice	398.399169644	FALSE	FALSE	FALSE	FALSE	TRUE	0	FALSE	FALSE	TRUE
e02	2015	07	20	14	33	m	21	r	65.839768201	2	1	1.02809318101	0.521487925802	right	tactile	right	visual	target	voice	NA	TRUE	FALSE	FALSE	FALSE	FALSE	0	FALSE	FALSE	FALSE
e02	2015	07	20	14	33	m	21	r	65.839768201	2	2	2.91938443901	1.49440898518	left	visual	left	tactile	target	voice	NA	TRUE	FALSE	FALSE	FALSE	FALSE	0	FALSE	FALSE	FALSE
e02	2015	07	20	14	33	m	21	r	65.839768201	2	3	3.15760142199	0.867104909487	right	visual	right	tactile	target	voice	332.309098187	FALSE	FALSE	FALSE	FALSE	FALSE	0	FALSE	FALSE	TRUE
e02	2015	07	20	14	33	m	21	r	65.839768201	2	4	1.501728195	1.14470925661	right	tactile	right	visual	target	voice	288.507866062	FALSE	FALSE	FALSE	FALSE	FALSE	0	FALSE	FALSE	TRUE
e02	2015	07	20	14	33	m	21	r	65.839768201	2	5	1.885415792	1.18664976884	right	visual	left	visual	target	voice	341.607850816	FALSE	FALSE	FALSE	FALSE	FALSE	0	FALSE	FALSE	TRUE
e02	2015	07	20	14	33	m	21	r	65.839768201	2	6	1.225788529	0.731348675726	right	tactile	left	tactile	target	voice	356.680591955	FALSE	FALSE	FALSE	FALSE	FALSE	0	FALSE	FALSE	TRUE
e02	2015	07	20	14	33	m	21	r	65.839768201	2	7	1.47888619499	0.520118955212	right	tactile	right	visual	target	voice	NA	TRUE	FALSE	FALSE	FALSE	TRUE	0	FALSE	FALSE	FALSE
e02	2015	07	20	14	33	m	21	r	65.839768201	2	8	0.791864643004	0.819319946521	left	tactile	right	visual	target	voice	364.287540142	FALSE	FALSE	FALSE	FALSE	FALSE	0	FALSE	FALSE	TRUE
e02	2015	07	20	14	33	m	21	r	65.839768201	2	9	0.993913817001	0.893082232937	right	visual	left	visual	target	voice	315.55305871	FALSE	FALSE	FALSE	FALSE	TRUE	0	FALSE	TRUE	TRUE
e02	2015	07	20	14	33	m	21	r	65.839768201	2	10	1.321782414	1.23017850646	left	tactile	left	tactile	target	voice	369.219827189	FALSE	FALSE	FALSE	FALSE	FALSE	0	FALSE	FALSE	TRUE
e02	2015	07	20	14	33	m	21	r	65.839768201	2	11	1.245318489	0.992212280631	right	visual	right	tactile	target	voice	272.128445038	FALSE	FALSE	FALSE	FALSE	FALSE	0	FALSE	FALSE	TRUE
e02	2015	07	20	14	33	m	21	r	65.839768201	2	12	2.775848751	1.03347367693	right	visual	right	visual	target	voice	631.208988736	FALSE	FALSE	FALSE	TRUE	TRUE	0	TRUE	TRUE	TRUE
e02	2015	07	20	14	33	m	21	r	65.839768201	2	13	17.214267136	1.27251307544	right	tactile	left	visual	target	voice	NA	TRUE	FALSE	FALSE	FALSE	TRUE	0	FALSE	FALSE	FALSE
e02	2015	07	20	14	33	m	21	r	65.839768201	2	14	3.108250016	0.588309445356	right	visual	right	tactile	target	voice	385.7080983	FALSE	FALSE	FALSE	FALSE	FALSE	0	FALSE	FALSE	TRUE
e02	2015	07	20	14	33	m	21	r	65.839768201	2	15	2.406030846	1.06323801329	left	visual	left	tactile	target	voice	301.683916376	FALSE	FALSE	FALSE	FALSE	TRUE	0	FALSE	TRUE	TRUE
e02	2015	07	20	14	33	m	21	r	65.839768201	2	16	1.468493151	0.894702605499	right	tactile	right	visual	target	voice	308.237354155	FALSE	FALSE	FALSE	FALSE	FALSE	0	FALSE	FALSE	TRUE
e02	2015	07	20	14	33	m	21	r	65.839768201	2	17	0.435864379993	0.985153784695	left	visual	right	visual	target	voice	NA	TRUE	FALSE	FALSE	FALSE	TRUE	0	FALSE	FALSE	FALSE
e02	2015	07	20	14	33	m	21	r	65.839768201	2	18	1.145676334	1.05119439309	left	visual	left	tactile	target	voice	302.216872573	FALSE	FALSE	FALSE	FALSE	FALSE	0	FALSE	FALSE	TRUE
e02	2015	07	20	14	33	m	21	r	65.839768201	2	19	1.06448112501	1.04070278734	right	tactile	left	visual	target	voice	296.936631319	FALSE	FALSE	FALSE	FALSE	FALSE	0	FALSE	FALSE	TRUE
e02	2015	07	20	14	33	m	21	r	65.839768201	2	20	0.779108859992	0.635351972398	right	visual	left	visual	target	voice	342.128213277	FALSE	FALSE	FALSE	FALSE	TRUE	0	FALSE	TRUE	TRUE
e02	2015	07	20	14	33	m	21	r	65.839768201	2	21	1.40160445801	1.44718067004	right	visual	right	tactile	target	voice	325.356828616	FALSE	FALSE	FALSE	FALSE	FALSE	0	FALSE	FALSE	TRUE
e02	2015	07	20	14	33	m	21	r	65.839768201	2	22	1.713521085	0.831358450367	left	tactile	right	visual	target	voice	349.536294292	FALSE	FALSE	FALSE	FALSE	FALSE	0	FALSE	FALSE	TRUE
e02	2015	07	20	14	33	m	21	r	65.839768201	2	23	1.21162487801	1.43920274027	right	tactile	right	tactile	target	voice	360.378046404	FALSE	FALSE	FALSE	FALSE	FALSE	0	FALSE	FALSE	TRUE
e02	2015	07	20	14	33	m	21	r	65.839768201	2	24	1.252325223	1.11993980781	right	tactile	left	visual	target	voice	391.389230863	FALSE	FALSE	FALSE	FALSE	TRUE	0	FALSE	FALSE	TRUE
e02	2015	07	20	14	33	m	21	r	65.839768201	2	25	2.758144897	0.625043945314	left	tactile	right	visual	target	voice	408.056117347	FALSE	FALSE	FALSE	FALSE	TRUE	0	FALSE	TRUE	TRUE
e02	2015	07	20	14	33	m	21	r	65.839768201	2	26	4.913522934	0.520030725206	right	visual	right	visual	target	voice	457.232461456	FALSE	FALSE	FALSE	FALSE	FALSE	0	FALSE	FALSE	TRUE
e02	2015	07	20	14	33	m	21	r	65.839768201	2	27	4.32795632401	1.10950306846	right	visual	left	tactile	catch	NA	NA	FALSE	FALSE	FALSE	FALSE	TRUE	0	FALSE	TRUE	TRUE
e02	2015	07	20	14	33	m	21	r	65.839768201	2	28	3.035597925	1.05926753342	left	tactile	left	visual	target	voice	368.656046252	FALSE	FALSE	FALSE	FALSE	TRUE	0	FALSE	FALSE	TRUE
e02	2015	07	20	14	33	m	21	r	65.839768201	2	29	1.625877755	1.1658003404	right	tactile	right	tactile	target	voice	363.915943264	FALSE	FALSE	FALSE	FALSE	TRUE	0	FALSE	TRUE	TRUE
e02	2015	07	20	14	33	m	21	r	65.839768201	2	30	1.29035296501	1.49689736392	right	visual	left	tactile	target	voice	367.436446744	FALSE	FALSE	FALSE	FALSE	TRUE	0	FALSE	FALSE	TRUE
e02	2015	07	20	14	33	m	21	r	65.839768201	2	31	1.44920435699	1.22322237754	right	visual	right	visual	target	voice	376.613539134	FALSE	FALSE	FALSE	FALSE	FALSE	0	FALSE	FALSE	TRUE
e02	2015	07	20	14	33	m	21	r	65.839768201	2	32	2.607112727	1.38088363235	left	visual	left	visual	target	voice	389.343622315	FALSE	FALSE	FALSE	FALSE	FALSE	0	FALSE	FALSE	TRUE
e02	2015	07	20	14	33	m	21	r	65.839768201	2	33	2.671305087	0.740146216585	left	tactile	right	visual	target	voice	392.236075073	FALSE	FALSE	FALSE	TRUE	TRUE	0	TRUE	FALSE	TRUE
e02	2015	07	20	14	33	m	21	r	65.839768201	2	34	2.71420260699	1.10951281596	right	tactile	left	tactile	target	voice	315.408507697	FALSE	FALSE	FALSE	FALSE	TRUE	0	FALSE	TRUE	TRUE
e02	2015	07	20	14	33	m	21	r	65.839768201	2	35	2.68605741	1.12021495952	left	tactile	right	visual	target	voice	351.683133151	FALSE	FALSE	FALSE	FALSE	TRUE	0	FALSE	TRUE	TRUE
e02	2015	07	20	14	33	m	21	r	65.839768201	2	36	154.505980191	1.10345213113	left	visual	left	visual	catch	voice	180.416599527	FALSE	FALSE	FALSE	FALSE	FALSE	0	FALSE	FALSE	TRUE
e02	2015	07	20	14	33	m	21	r	65.839768201	2	37	2.550579583	1.33559138325	left	tactile	right	tactile	catch	NA	NA	FALSE	FALSE	FALSE	FALSE	TRUE	0	FALSE	FALSE	TRUE
e02	2015	07	20	14	33	m	21	r	65.839768201	2	38	1.003293595	1.33531515289	left	visual	left	tactile	target	voice	420.733956766	FALSE	FALSE	FALSE	FALSE	FALSE	0	FALSE	FALSE	TRUE
e02	2015	07	20	14	33	m	21	r	65.839768201	2	39	1.709712136	1.25928919337	right	tactile	right	tactile	target	voice	347.229809282	FALSE	FALSE	FALSE	FALSE	TRUE	0	FALSE	FALSE	TRUE
e02	2015	07	20	14	33	m	21	r	65.839768201	2	40	0.867897878008	0.690030644687	left	tactile	left	tactile	target	voice	337.231245983	FALSE	FALSE	FALSE	FALSE	TRUE	0	FALSE	FALSE	TRUE
e02	2015	07	20	14	33	m	21	r	8.282282706	2	41	1.17447188101	0.817361421288	left	tactile	left	visual	target	voice	372.980748376	FALSE	FALSE	FALSE	FALSE	FALSE	0	FALSE	FALSE	TRUE
e02	2015	07	20	14	33	m	21	r	8.282282706	2	42	0.831142987008	1.20399680106	left	visual	right	tactile	target	voice	254.84193259	FALSE	FALSE	FALSE	FALSE	FALSE	0	FALSE	FALSE	TRUE
e02	2015	07	20	14	33	m	21	r	8.282282706	2	43	1.43319323899	1.37533491232	right	visual	right	visual	catch	NA	NA	FALSE	FALSE	FALSE	FALSE	TRUE	0	FALSE	FALSE	TRUE
e02	2015	07	20	14	33	m	21	r	8.282282706	2	44	1.90503836601	0.935772200726	left	tactile	right	tactile	target	voice	277.786168939	FALSE	FALSE	FALSE	FALSE	FALSE	0	FALSE	FALSE	TRUE
e02	2015	07	20	14	33	m	21	r	8.282282706	2	45	0.865865639993	0.824718142268	left	tactile	left	visual	catch	NA	NA	FALSE	FALSE	FALSE	FALSE	TRUE	0	FALSE	TRUE	TRUE
e02	2015	07	20	14	33	m	21	r	8.282282706	2	46	0.763195520994	0.735142731204	left	tactile	right	tactile	target	voice	294.101614447	FALSE	FALSE	FALSE	FALSE	FALSE	0	FALSE	FALSE	TRUE
e02	2015	07	20	14	33	m	21	r	8.282282706	2	47	1.23180954299	1.0531916291	right	visual	right	tactile	target	voice	288.566155563	FALSE	FALSE	FALSE	FALSE	FALSE	0	FALSE	FALSE	TRUE
e02	2015	07	20	14	33	m	21	r	8.282282706	2	48	1.135613591	0.905821606219	right	visual	right	visual	target	voice	360.85569943	FALSE	FALSE	FALSE	FALSE	FALSE	0	FALSE	FALSE	TRUE
e02	2015	07	20	14	33	m	21	r	8.282282706	2	49	1.206299457	0.987206060911	left	visual	right	tactile	target	voice	391.230424764	FALSE	FALSE	FALSE	FALSE	FALSE	0	FALSE	FALSE	TRUE
e02	2015	07	20	14	33	m	21	r	8.282282706	2	50	1.658967322	0.565650329987	right	visual	left	tactile	target	voice	332.526658691	FALSE	FALSE	FALSE	FALSE	FALSE	0	FALSE	FALSE	TRUE
e02	2015	07	20	14	33	m	21	r	8.282282706	2	51	0.997907676006	1.46274502436	left	tactile	right	visual	target	voice	387.739946309	FALSE	FALSE	FALSE	FALSE	FALSE	0	FALSE	FALSE	TRUE
e02	2015	07	20	14	33	m	21	r	8.282282706	2	52	1.085442721	1.28995118486	left	visual	left	tactile	target	voice	310.393592808	FALSE	FALSE	FALSE	TRUE	TRUE	0	FALSE	FALSE	TRUE
e02	2015	07	20	14	33	m	21	r	8.282282706	2	53	1.50493310099	1.20030827128	left	tactile	right	tactile	target	voice	250.25387037	FALSE	FALSE	FALSE	FALSE	TRUE	0	FALSE	FALSE	TRUE
e02	2015	07	20	14	33	m	21	r	8.282282706	2	54	2.965213816	1.49184216684	right	tactile	left	tactile	target	voice	301.314960816	FALSE	FALSE	FALSE	FALSE	TRUE	0	FALSE	FALSE	TRUE
e02	2015	07	20	14	33	m	21	r	8.282282706	2	55	1.156437381	1.44779633395	right	visual	right	tactile	target	voice	292.849967722	FALSE	FALSE	FALSE	FALSE	TRUE	0	FALSE	FALSE	TRUE
e02	2015	07	20	14	33	m	21	r	8.282282706	2	56	3.104809265	0.857143633897	right	tactile	left	tactile	target	voice	272.212856755	FALSE	FALSE	FALSE	FALSE	TRUE	0	FALSE	TRUE	TRUE
e02	2015	07	20	14	33	m	21	r	8.282282706	2	57	0.937468150005	0.733009456759	left	visual	left	tactile	target	voice	292.527030906	FALSE	FALSE	FALSE	FALSE	FALSE	0	FALSE	FALSE	TRUE
e02	2015	07	20	14	33	m	21	r	8.282282706	2	58	2.47139771799	1.37861652247	right	tactile	left	visual	catch	NA	NA	FALSE	FALSE	FALSE	FALSE	FALSE	0	FALSE	FALSE	TRUE
e02	2015	07	20	14	33	m	21	r	8.282282706	2	59	1.217769689	0.798378953811	right	tactile	right	tactile	target	voice	385.72904485	FALSE	FALSE	FALSE	FALSE	TRUE	0	FALSE	FALSE	TRUE
e02	2015	07	20	14	33	m	21	r	8.282282706	2	60	1.36369993401	0.823868250478	left	visual	left	tactile	target	voice	490.847674184	FALSE	FALSE	FALSE	FALSE	FALSE	0	FALSE	FALSE	TRUE
e02	2015	07	20	14	33	m	21	r	8.282282706	2	61	1.92616657501	0.851015009895	right	tactile	right	visual	target	voice	331.317599776	FALSE	FALSE	FALSE	FALSE	FALSE	0	FALSE	FALSE	TRUE
e02	2015	07	20	14	33	m	21	r	8.282282706	2	62	3.022868046	1.1378855415	left	tactile	right	tactile	target	voice	399.524960172	FALSE	FALSE	FALSE	FALSE	TRUE	0	FALSE	TRUE	TRUE
e02	2015	07	20	14	33	m	21	r	8.282282706	2	63	1.408577867	0.952775347278	left	visual	left	tactile	target	voice	337.733419379	FALSE	FALSE	FALSE	FALSE	FALSE	0	FALSE	FALSE	TRUE
e02	2015	07	20	14	33	m	21	r	8.282282706	2	64	1.16845273801	0.58765051199	right	tactile	left	visual	target	voice	410.472473668	FALSE	FALSE	FALSE	FALSE	FALSE	0	FALSE	FALSE	TRUE
e02	2015	07	20	14	33	m	21	r	8.282282706	2	65	1.000658308	0.876221832795	left	tactile	left	visual	target	voice	NA	TRUE	FALSE	FALSE	FALSE	FALSE	0	FALSE	FALSE	FALSE
e02	2015	07	20	14	33	m	21	r	8.282282706	2	66	1.599368984	0.725465447747	left	tactile	left	tactile	target	voice	355.898394919	FALSE	FALSE	FALSE	FALSE	TRUE	0	FALSE	FALSE	TRUE
e02	2015	07	20	14	33	m	21	r	8.282282706	2	67	1.37187158701	0.78089300342	left	visual	right	visual	target	voice	303.261111243	FALSE	FALSE	FALSE	FALSE	TRUE	0	FALSE	FALSE	TRUE
e02	2015	07	20	14	33	m	21	r	8.282282706	2	68	2.483136148	0.617470143816	right	visual	left	visual	target	voice	284.104409846	FALSE	FALSE	FALSE	FALSE	TRUE	0	FALSE	TRUE	TRUE
e02	2015	07	20	14	33	m	21	r	8.282282706	2	69	2.90260855301	0.865020474874	right	visual	left	visual	target	voice	316.712875792	FALSE	FALSE	FALSE	FALSE	TRUE	0	FALSE	FALSE	TRUE
e02	2015	07	20	14	33	m	21	r	8.282282706	2	70	0.862718899007	1.08849055172	right	visual	left	tactile	target	voice	238.185964947	FALSE	FALSE	FALSE	FALSE	FALSE	0	FALSE	FALSE	TRUE
e02	2015	07	20	14	33	m	21	r	8.282282706	2	71	2.42150041299	1.42529497013	right	tactile	left	tactile	catch	NA	NA	FALSE	FALSE	FALSE	FALSE	FALSE	0	FALSE	FALSE	TRUE
e02	2015	07	20	14	33	m	21	r	8.282282706	2	72	0.887170376009	0.929958268845	right	tactile	left	visual	target	voice	297.610518828	FALSE	FALSE	FALSE	FALSE	FALSE	0	FALSE	FALSE	TRUE
e02	2015	07	20	14	33	m	21	r	8.282282706	2	73	0.786633053998	1.22787237123	left	tactile	left	tactile	target	voice	329.926893435	FALSE	FALSE	FALSE	FALSE	TRUE	0	FALSE	FALSE	TRUE
e02	2015	07	20	14	33	m	21	r	8.282282706	2	74	3.013753812	0.798483752809	right	visual	right	visual	target	voice	243.359534856	FALSE	FALSE	FALSE	FALSE	FALSE	0	FALSE	FALSE	TRUE
e02	2015	07	20	14	33	m	21	r	8.282282706	2	75	2.07118388401	0.834804220788	right	visual	left	tactile	target	voice	267.361725855	FALSE	FALSE	FALSE	FALSE	TRUE	0	FALSE	FALSE	TRUE
e02	2015	07	20	14	33	m	21	r	8.282282706	2	76	2.19991437299	1.25528857588	left	visual	right	visual	target	voice	272.930463791	FALSE	FALSE	FALSE	FALSE	TRUE	0	FALSE	TRUE	TRUE
e02	2015	07	20	14	33	m	21	r	8.282282706	2	77	2.356244286	1.44177360568	right	visual	right	tactile	catch	voice	NA	TRUE	FALSE	FALSE	FALSE	FALSE	0	FALSE	FALSE	FALSE
e02	2015	07	20	14	33	m	21	r	8.282282706	2	78	0.535651658996	1.11539246028	right	tactile	right	tactile	target	voice	377.916372381	FALSE	FALSE	FALSE	FALSE	FALSE	0	FALSE	FALSE	TRUE
e02	2015	07	20	14	33	m	21	r	8.282282706	2	79	35.831770356	1.05697900342	left	visual	left	visual	target	voice	487.564692245	FALSE	FALSE	FALSE	FALSE	FALSE	0	FALSE	FALSE	TRUE
e02	2015	07	20	14	33	m	21	r	8.282282706	2	80	1.77515879901	0.550111794362	left	visual	right	tactile	target	voice	275.042069305	FALSE	FALSE	FALSE	FALSE	FALSE	0	FALSE	FALSE	TRUE
e02	2015	07	20	14	33	m	21	r	6.688082307	2	81	2.07040870801	1.19916032679	left	tactile	left	visual	target	voice	372.380846893	FALSE	FALSE	FALSE	FALSE	FALSE	0	FALSE	FALSE	TRUE
e02	2015	07	20	14	33	m	21	r	6.688082307	2	82	1.848941144	0.558800606946	left	tactile	right	visual	target	voice	383.107793721	FALSE	FALSE	FALSE	FALSE	FALSE	0	FALSE	FALSE	TRUE
e02	2015	07	20	14	33	m	21	r	6.688082307	2	83	7.75446750699	1.40420811054	right	tactile	left	tactile	target	voice	569.201095117	FALSE	FALSE	FALSE	FALSE	FALSE	0	FALSE	FALSE	TRUE
e02	2015	07	20	14	33	m	21	r	6.688082307	2	84	3.33393129401	0.85487238239	right	visual	right	visual	target	voice	424.50110428	FALSE	FALSE	FALSE	FALSE	FALSE	0	FALSE	FALSE	TRUE
e02	2015	07	20	14	33	m	21	r	6.688082307	2	85	0.862675469994	0.69049276112	left	visual	right	tactile	target	voice	205.224079546	FALSE	FALSE	FALSE	FALSE	FALSE	0	FALSE	FALSE	TRUE
e02	2015	07	20	14	33	m	21	r	6.688082307	2	86	1.71475559901	1.36945357904	left	visual	right	visual	target	voice	255.49947063	FALSE	FALSE	FALSE	FALSE	TRUE	0	FALSE	FALSE	TRUE
e02	2015	07	20	14	33	m	21	r	6.688082307	2	87	2.22761054299	1.0043918816	left	visual	left	visual	target	voice	417.923279048	FALSE	FALSE	FALSE	FALSE	FALSE	0	FALSE	FALSE	TRUE
e02	2015	07	20	14	33	m	21	r	6.688082307	2	88	212.228255579	0.761366623057	left	visual	left	visual	target	voice	87.4120955996	FALSE	FALSE	FALSE	FALSE	TRUE	0	FALSE	FALSE	TRUE
e02	2015	07	20	14	33	m	21	r	6.688082307	2	89	10.532811617	1.47252630376	left	tactile	left	tactile	target	voice	NA	TRUE	FALSE	FALSE	FALSE	FALSE	0	FALSE	FALSE	FALSE
e02	2015	07	20	14	33	m	21	r	6.688082307	2	90	0.561894163999	1.49943750745	right	tactile	left	tactile	target	voice	NA	TRUE	FALSE	FALSE	FALSE	FALSE	0	FALSE	FALSE	FALSE
e02	2015	07	20	14	33	m	21	r	6.688082307	2	91	11.986002503	1.23128031768	left	visual	right	visual	target	voice	NA	TRUE	FALSE	FALSE	FALSE	FALSE	0	FALSE	FALSE	FALSE
e02	2015	07	20	14	33	m	21	r	6.688082307	2	92	1.865885249	1.05252626039	right	visual	left	tactile	target	voice	306.652608269	FALSE	FALSE	FALSE	FALSE	TRUE	0	FALSE	FALSE	TRUE
e02	2015	07	20	14	33	m	21	r	6.688082307	2	93	0.863059861993	0.718787626651	left	tactile	right	tactile	target	voice	279.231557011	FALSE	FALSE	FALSE	FALSE	FALSE	0	FALSE	FALSE	TRUE
e02	2015	07	20	14	33	m	21	r	6.688082307	2	94	1.40309133999	0.86991900048	left	visual	right	tactile	target	voice	261.845075176	FALSE	FALSE	FALSE	FALSE	TRUE	0	FALSE	TRUE	TRUE
e02	2015	07	20	14	33	m	21	r	6.688082307	2	95	0.449134219991	0.750994672049	right	tactile	right	visual	target	voice	384.607206608	FALSE	FALSE	FALSE	FALSE	TRUE	0	FALSE	TRUE	TRUE
e02	2015	07	20	14	33	m	21	r	6.688082307	2	96	0.648143540995	0.89057114166	left	visual	right	visual	catch	NA	NA	FALSE	FALSE	FALSE	FALSE	FALSE	0	FALSE	FALSE	TRUE
e02	2015	07	20	14	33	m	21	r	6.688082307	2	97	1.244893319	1.38487063806	left	tactile	right	tactile	target	voice	297.894697593	FALSE	FALSE	FALSE	FALSE	FALSE	0	FALSE	FALSE	TRUE
e02	2015	07	20	14	33	m	21	r	6.688082307	2	98	0.630396420995	0.917985392288	left	visual	right	tactile	catch	NA	NA	FALSE	FALSE	FALSE	TRUE	TRUE	0	FALSE	FALSE	TRUE
e02	2015	07	20	14	33	m	21	r	6.688082307	2	99	1.19466879399	1.03187484796	left	tactile	right	visual	target	voice	370.963223701	FALSE	FALSE	FALSE	FALSE	TRUE	0	FALSE	TRUE	TRUE
e02	2015	07	20	14	33	m	21	r	6.688082307	2	100	0.69407400499	0.915561405055	left	visual	left	visual	target	voice	462.637478617	FALSE	FALSE	FALSE	FALSE	FALSE	0	FALSE	FALSE	TRUE
e02	2015	07	20	14	33	m	21	r	6.688082307	2	101	1.51083007001	1.24395665124	left	tactile	right	tactile	target	voice	314.363362428	FALSE	FALSE	FALSE	FALSE	FALSE	0	FALSE	FALSE	TRUE
e02	2015	07	20	14	33	m	21	r	6.688082307	2	102	0.851637988002	1.09504926255	right	tactile	left	visual	target	voice	332.083242101	FALSE	FALSE	FALSE	TRUE	TRUE	0	FALSE	FALSE	TRUE
e02	2015	07	20	14	33	m	21	r	6.688082307	2	103	0.579670797	1.27270847949	left	visual	left	tactile	target	voice	332.77608818	FALSE	FALSE	FALSE	FALSE	TRUE	0	FALSE	TRUE	TRUE
e02	2015	07	20	14	33	m	21	r	6.688082307	2	104	3.33979384099	0.610864380037	right	visual	right	visual	target	voice	398.204296624	FALSE	FALSE	FALSE	FALSE	FALSE	0	FALSE	FALSE	TRUE
e02	2015	07	20	14	33	m	21	r	6.688082307	2	105	0.866642102992	1.32546902246	right	visual	right	tactile	target	voice	275.282112212	FALSE	FALSE	FALSE	FALSE	FALSE	0	FALSE	FALSE	TRUE
e02	2015	07	20	14	33	m	21	r	6.688082307	2	106	1.06790381299	1.23492883744	left	tactile	left	tactile	target	voice	291.006393221	FALSE	FALSE	FALSE	FALSE	TRUE	0	FALSE	FALSE	TRUE
e02	2015	07	20	14	33	m	21	r	6.688082307	2	107	1.609824931	0.531725939438	right	visual	left	tactile	target	voice	382.056479226	FALSE	FALSE	FALSE	FALSE	TRUE	0	FALSE	FALSE	TRUE
e02	2015	07	20	14	33	m	21	r	6.688082307	2	108	1.642994008	1.46685738022	left	visual	right	tactile	target	voice	155.934625451	FALSE	FALSE	FALSE	FALSE	TRUE	0	FALSE	TRUE	TRUE
e02	2015	07	20	14	33	m	21	r	6.688082307	2	109	4.71090838399	0.737414046523	right	tactile	right	tactile	catch	voice	NA	TRUE	FALSE	FALSE	FALSE	FALSE	0	FALSE	FALSE	FALSE
e02	2015	07	20	14	33	m	21	r	6.688082307	2	110	3.054828199	0.863769309311	right	tactile	left	visual	target	voice	330.686732341	FALSE	FALSE	FALSE	FALSE	FALSE	0	FALSE	FALSE	TRUE
e02	2015	07	20	14	33	m	21	r	6.688082307	2	111	3.20262065199	0.747446072811	right	tactile	right	tactile	target	voice	530.61176285	FALSE	FALSE	FALSE	FALSE	TRUE	0	FALSE	TRUE	TRUE
e02	2015	07	20	14	33	m	21	r	6.688082307	2	112	7.03250198699	1.07017307119	left	tactile	left	tactile	target	voice	412.924595468	FALSE	FALSE	FALSE	FALSE	FALSE	0	FALSE	FALSE	TRUE
e02	2015	07	20	14	33	m	21	r	6.688082307	2	113	5.03150575601	1.3580292627	right	visual	left	tactile	target	voice	295.224398957	FALSE	FALSE	FALSE	FALSE	FALSE	0	FALSE	FALSE	TRUE
e02	2015	07	20	14	33	m	21	r	6.688082307	2	114	10.252697984	1.09831624989	left	visual	left	visual	target	voice	345.440383768	FALSE	FALSE	FALSE	FALSE	TRUE	0	FALSE	TRUE	TRUE
e02	2015	07	20	14	33	m	21	r	6.688082307	2	115	4.085428341	0.912058033862	left	tactile	right	tactile	target	voice	454.143394803	FALSE	FALSE	FALSE	FALSE	FALSE	0	FALSE	FALSE	TRUE
e02	2015	07	20	14	33	m	21	r	6.688082307	2	116	42.845743069	0.536416743209	left	visual	right	tactile	target	voice	374.949717443	FALSE	FALSE	FALSE	FALSE	FALSE	0	FALSE	FALSE	TRUE
e02	2015	07	20	14	33	m	21	r	6.688082307	2	117	9.110769051	0.970061924186	left	visual	left	visual	target	voice	NA	TRUE	FALSE	FALSE	FALSE	FALSE	0	FALSE	FALSE	FALSE
e02	2015	07	20	14	33	m	21	r	6.688082307	2	118	5.44211952	0.574478093147	left	tactile	right	visual	target	voice	530.432105516	FALSE	FALSE	FALSE	TRUE	TRUE	0	TRUE	TRUE	TRUE
e02	2015	07	20	14	33	m	21	r	6.688082307	2	119	3.29031288699	0.718369006792	right	tactile	left	visual	target	voice	329.533062861	FALSE	FALSE	FALSE	FALSE	TRUE	0	FALSE	TRUE	TRUE
e02	2015	07	20	14	33	m	21	r	6.688082307	2	120	0.951425662002	0.793879874222	right	visual	right	tactile	target	voice	272.778365441	FALSE	FALSE	FALSE	FALSE	FALSE	0	FALSE	FALSE	TRUE
e02	2015	07	20	14	33	m	21	r	16.356150221	2	121	111.55864795	0.93659324469	left	tactile	left	visual	target	voice	389.524746963	FALSE	FALSE	FALSE	TRUE	FALSE	0	FALSE	FALSE	TRUE
e02	2015	07	20	14	33	m	21	r	16.356150221	2	122	0.779163475992	1.10757562461	left	tactile	left	tactile	target	voice	310.478609055	FALSE	FALSE	FALSE	FALSE	FALSE	0	FALSE	FALSE	TRUE
e02	2015	07	20	14	33	m	21	r	16.356150221	2	123	0.964159012001	0.742574716434	right	visual	left	visual	target	voice	303.048664224	FALSE	FALSE	FALSE	FALSE	FALSE	0	FALSE	FALSE	TRUE
e02	2015	07	20	14	33	m	21	r	16.356150221	2	124	0.731212893996	1.45303792015	right	tactile	right	tactile	target	voice	249.63094652	FALSE	FALSE	FALSE	FALSE	TRUE	0	FALSE	TRUE	TRUE
e02	2015	07	20	14	33	m	21	r	16.356150221	2	125	1.777253055	0.562013803605	right	tactile	left	visual	target	voice	268.665081065	FALSE	FALSE	FALSE	FALSE	FALSE	0	FALSE	FALSE	TRUE
e02	2015	07	20	14	33	m	21	r	16.356150221	2	126	1.57089699301	1.11054075873	left	visual	left	visual	target	voice	297.225615926	FALSE	FALSE	FALSE	FALSE	TRUE	0	FALSE	TRUE	TRUE
e02	2015	07	20	14	33	m	21	r	16.356150221	2	127	1.06729215299	1.35509827745	left	visual	right	visual	target	voice	234.338448223	FALSE	FALSE	FALSE	FALSE	FALSE	0	FALSE	FALSE	TRUE
e02	2015	07	20	14	33	m	21	r	16.356150221	2	128	3.03399436599	0.959230702158	right	tactile	right	visual	target	voice	330.887804506	FALSE	FALSE	FALSE	FALSE	TRUE	0	FALSE	TRUE	TRUE
e02	2015	07	20	14	33	m	21	r	16.356150221	2	129	3.758284752	1.17601125653	left	tactile	right	tactile	target	voice	306.274364135	FALSE	FALSE	FALSE	FALSE	FALSE	0	FALSE	FALSE	TRUE
e02	2015	07	20	14	33	m	21	r	16.356150221	2	130	1.08100341799	1.151590181	left	visual	left	tactile	catch	NA	NA	FALSE	FALSE	FALSE	FALSE	FALSE	0	FALSE	FALSE	TRUE
e02	2015	07	20	14	33	m	21	r	16.356150221	2	131	1.34810399801	0.994911431037	left	visual	right	tactile	target	voice	316.208640623	FALSE	FALSE	FALSE	FALSE	TRUE	0	FALSE	TRUE	TRUE
e02	2015	07	20	14	33	m	21	r	16.356150221	2	132	5.14626408099	0.68648215051	right	visual	left	visual	target	voice	586.716212143	FALSE	FALSE	FALSE	FALSE	TRUE	0	FALSE	TRUE	TRUE
e02	2015	07	20	14	33	m	21	r	16.356150221	2	133	8.32971072501	1.07821859613	right	visual	right	visual	target	voice	379.303883543	FALSE	FALSE	FALSE	FALSE	FALSE	0	FALSE	FALSE	TRUE
e02	2015	07	20	14	33	m	21	r	16.356150221	2	134	15.417944732	0.632380049825	right	tactile	right	visual	target	NA	NA	FALSE	FALSE	FALSE	TRUE	FALSE	0	TRUE	FALSE	TRUE
e02	2015	07	20	14	33	m	21	r	16.356150221	2	135	4.39258419001	0.841550526227	right	tactile	right	visual	target	voice	390.053543437	FALSE	FALSE	FALSE	FALSE	TRUE	0	FALSE	FALSE	TRUE
e02	2015	07	20	14	33	m	21	r	16.356150221	2	136	3.67901579599	1.46055163084	left	tactile	left	visual	target	voice	359.543009836	FALSE	FALSE	FALSE	FALSE	FALSE	0	FALSE	FALSE	TRUE
e02	2015	07	20	14	33	m	21	r	16.356150221	2	137	2.278869919	0.685952410074	left	visual	right	visual	target	voice	327.452513593	FALSE	FALSE	FALSE	FALSE	TRUE	0	FALSE	FALSE	TRUE
e02	2015	07	20	14	33	m	21	r	16.356150221	2	138	8.52379236299	0.996881442824	right	visual	left	visual	target	voice	310.023152822	FALSE	FALSE	FALSE	FALSE	FALSE	0	FALSE	FALSE	TRUE
e02	2015	07	20	14	33	m	21	r	16.356150221	2	139	6.953050868	1.43837591839	right	visual	right	tactile	target	voice	418.248792281	FALSE	FALSE	FALSE	FALSE	TRUE	0	FALSE	TRUE	TRUE
e02	2015	07	20	14	33	m	21	r	16.356150221	2	140	1.93496432	0.853745295041	right	tactile	right	tactile	target	voice	428.244502618	FALSE	FALSE	FALSE	FALSE	FALSE	0	FALSE	FALSE	TRUE
e02	2015	07	20	14	33	m	21	r	16.356150221	2	141	10.652986852	1.00424713005	left	tactile	right	visual	catch	NA	NA	FALSE	FALSE	FALSE	FALSE	FALSE	0	FALSE	FALSE	TRUE
e02	2015	07	20	14	33	m	21	r	16.356150221	2	142	1.482364127	0.726444520784	left	tactile	left	tactile	target	voice	417.569542886	FALSE	FALSE	FALSE	FALSE	TRUE	0	FALSE	FALSE	TRUE
e02	2015	07	20	14	33	m	21	r	16.356150221	2	143	0.844485505004	1.26985699806	left	tactile	left	visual	target	voice	380.616081602	FALSE	FALSE	FALSE	FALSE	FALSE	0	FALSE	FALSE	TRUE
e02	2015	07	20	14	33	m	21	r	16.356150221	2	144	0.688908429991	0.574846040747	left	tactile	left	visual	target	voice	382.184214919	FALSE	FALSE	FALSE	TRUE	TRUE	0	TRUE	TRUE	TRUE
e02	2015	07	20	14	33	m	21	r	16.356150221	2	145	0.505636508999	1.3268650055	right	visual	left	visual	target	voice	333.002349173	FALSE	FALSE	FALSE	FALSE	FALSE	0	FALSE	FALSE	TRUE
e02	2015	07	20	14	33	m	21	r	16.356150221	2	146	2.53280090599	0.964434058592	right	visual	right	visual	target	voice	311.672485055	FALSE	FALSE	FALSE	FALSE	FALSE	0	FALSE	FALSE	TRUE
e02	2015	07	20	14	33	m	21	r	16.356150221	2	147	4.73814030499	0.919803547893	left	visual	right	visual	target	voice	306.395390769	FALSE	FALSE	FALSE	FALSE	FALSE	0	FALSE	FALSE	TRUE
e02	2015	07	20	14	33	m	21	r	16.356150221	2	148	4.561827713	0.817073926343	right	tactile	right	tactile	target	voice	316.331402311	FALSE	FALSE	FALSE	FALSE	FALSE	0	FALSE	FALSE	TRUE
e02	2015	07	20	14	33	m	21	r	16.356150221	2	149	3.33708535301	0.686275103524	right	tactile	left	tactile	target	voice	362.077870144	FALSE	FALSE	FALSE	FALSE	FALSE	0	FALSE	FALSE	TRUE
e02	2015	07	20	14	33	m	21	r	16.356150221	2	150	7.12378798699	1.00873702271	left	tactile	left	tactile	catch	NA	NA	FALSE	FALSE	FALSE	FALSE	TRUE	0	FALSE	TRUE	TRUE
e02	2015	07	20	14	33	m	21	r	16.356150221	2	151	5.97328078901	1.30128525462	left	tactile	left	visual	target	voice	383.293850027	FALSE	FALSE	FALSE	FALSE	TRUE	0	FALSE	TRUE	TRUE
e02	2015	07	20	14	33	m	21	r	16.356150221	2	152	10.761690379	0.940306429362	left	visual	left	visual	target	voice	411.030201314	FALSE	FALSE	FALSE	TRUE	TRUE	0	FALSE	TRUE	TRUE
e02	2015	07	20	14	33	m	21	r	16.356150221	2	153	1.212563294	0.869179865716	right	tactile	right	visual	catch	NA	NA	FALSE	FALSE	FALSE	FALSE	FALSE	0	FALSE	FALSE	TRUE
e02	2015	07	20	14	33	m	21	r	16.356150221	2	154	0.525763102007	0.928171676589	right	visual	left	visual	catch	NA	NA	FALSE	FALSE	FALSE	FALSE	FALSE	0	FALSE	FALSE	TRUE
e02	2015	07	20	14	33	m	21	r	16.356150221	2	155	2.76004632401	0.814514322188	right	visual	left	tactile	target	voice	365.909864471	FALSE	FALSE	FALSE	FALSE	FALSE	0	FALSE	FALSE	TRUE
e02	2015	07	20	14	33	m	21	r	16.356150221	2	156	1.049342734	1.18450542729	right	visual	left	tactile	target	voice	230.879946379	FALSE	FALSE	FALSE	FALSE	FALSE	0	FALSE	FALSE	TRUE
e02	2015	07	20	14	33	m	21	r	16.356150221	2	157	1.07403179799	0.707605801597	right	tactile	left	tactile	target	voice	228.961767076	FALSE	FALSE	FALSE	FALSE	FALSE	0	FALSE	FALSE	TRUE
e02	2015	07	20	14	33	m	21	r	16.356150221	2	158	1.32219446801	1.09898441479	right	tactile	left	tactile	target	voice	224.87390587	FALSE	FALSE	FALSE	FALSE	FALSE	0	FALSE	FALSE	TRUE
e02	2015	07	20	14	33	m	21	r	16.356150221	2	159	3.625942422	1.22096947909	left	visual	right	visual	target	voice	279.963893568	FALSE	FALSE	FALSE	FALSE	FALSE	0	FALSE	FALSE	TRUE
e02	2015	07	20	14	33	m	21	r	16.356150221	2	160	1.46686904899	0.50765552271	left	visual	right	tactile	target	voice	202.022903963	FALSE	FALSE	FALSE	FALSE	TRUE	0	FALSE	FALSE	TRUE
e02	2015	07	20	14	33	m	21	r	59.102946437	3	1	1.484789158	1.15223114025	left	tactile	left	tactile	target	voice	407.657850403	FALSE	FALSE	FALSE	FALSE	FALSE	0	FALSE	FALSE	TRUE
e02	2015	07	20	14	33	m	21	r	59.102946437	3	2	0.899623741003	1.29335599816	right	tactile	right	visual	target	voice	292.698342499	FALSE	FALSE	FALSE	FALSE	FALSE	0	FALSE	FALSE	TRUE
e02	2015	07	20	14	33	m	21	r	59.102946437	3	3	1.197282191	1.25696216633	right	tactile	left	visual	catch	NA	NA	FALSE	FALSE	FALSE	FALSE	FALSE	0	FALSE	FALSE	TRUE
e02	2015	07	20	14	33	m	21	r	59.102946437	3	4	0.577169665004	1.43941132406	left	visual	left	visual	target	voice	397.446044604	FALSE	FALSE	FALSE	FALSE	FALSE	0	FALSE	FALSE	TRUE
e02	2015	07	20	14	33	m	21	r	59.102946437	3	5	1.157959416	1.25496603543	left	tactile	left	tactile	target	voice	295.32181524	FALSE	FALSE	FALSE	FALSE	FALSE	0	FALSE	FALSE	TRUE
e02	2015	07	20	14	33	m	21	r	59.102946437	3	6	0.766410639	1.29274895328	right	visual	left	tactile	target	voice	282.912046387	FALSE	FALSE	FALSE	FALSE	FALSE	0	FALSE	FALSE	TRUE
e02	2015	07	20	14	33	m	21	r	59.102946437	3	7	0.993896531014	0.628499510611	right	visual	right	tactile	target	voice	284.545080052	FALSE	FALSE	FALSE	FALSE	FALSE	0	FALSE	FALSE	TRUE
e02	2015	07	20	14	33	m	21	r	59.102946437	3	8	0.799793978003	0.571283611803	left	visual	right	tactile	target	voice	246.503056856	FALSE	FALSE	FALSE	TRUE	TRUE	0	FALSE	TRUE	TRUE
e02	2015	07	20	14	33	m	21	r	59.102946437	3	9	0.855674203005	1.06307126664	right	visual	left	visual	target	voice	249.818896031	FALSE	FALSE	FALSE	FALSE	FALSE	0	FALSE	FALSE	TRUE
e02	2015	07	20	14	33	m	21	r	59.102946437	3	10	2.053714091	0.990355081009	right	visual	right	visual	target	voice	250.579236643	FALSE	FALSE	FALSE	FALSE	FALSE	0	FALSE	FALSE	TRUE
e02	2015	07	20	14	33	m	21	r	59.102946437	3	11	1.228037029	1.35617888415	right	tactile	left	visual	target	voice	267.7643715	FALSE	FALSE	FALSE	FALSE	FALSE	0	FALSE	FALSE	TRUE
e02	2015	07	20	14	33	m	21	r	59.102946437	3	12	1.29707698	1.10221164838	right	tactile	left	visual	target	voice	268.778538288	FALSE	FALSE	FALSE	FALSE	FALSE	0	FALSE	FALSE	TRUE
e02	2015	07	20	14	33	m	21	r	59.102946437	3	13	1.118943357	1.21175795556	left	tactile	right	tactile	target	voice	244.784607101	FALSE	FALSE	FALSE	FALSE	TRUE	0	FALSE	TRUE	TRUE
e02	2015	07	20	14	33	m	21	r	59.102946437	3	14	1.064431636	0.557818062598	left	tactile	right	tactile	target	voice	254.94186506	FALSE	FALSE	FALSE	FALSE	FALSE	0	FALSE	FALSE	TRUE
e02	2015	07	20	14	33	m	21	r	59.102946437	3	15	2.25902189799	0.7595072716	right	tactile	left	tactile	target	voice	215.379659057	FALSE	FALSE	FALSE	TRUE	TRUE	0	FALSE	FALSE	TRUE
e02	2015	07	20	14	33	m	21	r	59.102946437	3	16	1.02601796099	1.1388597588	right	visual	left	tactile	target	voice	267.947127868	FALSE	FALSE	FALSE	FALSE	FALSE	0	FALSE	FALSE	TRUE
e02	2015	07	20	14	33	m	21	r	59.102946437	3	17	1.908205977	0.548645130708	left	visual	right	visual	target	voice	275.558396956	FALSE	FALSE	FALSE	FALSE	FALSE	0	FALSE	FALSE	TRUE
e02	2015	07	20	14	33	m	21	r	59.102946437	3	18	1.139462411	1.22094093029	left	visual	left	tactile	target	voice	384.90292737	FALSE	FALSE	FALSE	FALSE	TRUE	0	FALSE	FALSE	TRUE
e02	2015	07	20	14	33	m	21	r	59.102946437	3	19	0.829178184998	0.62190104649	right	tactile	left	tactile	target	voice	284.498660185	FALSE	FALSE	FALSE	FALSE	TRUE	0	FALSE	TRUE	TRUE
e02	2015	07	20	14	33	m	21	r	59.102946437	3	20	0.920180020999	1.08779854483	left	tactile	right	tactile	target	voice	209.556869828	FALSE	FALSE	FALSE	FALSE	TRUE	0	FALSE	FALSE	TRUE
e02	2015	07	20	14	33	m	21	r	59.102946437	3	21	1.195466736	1.00637079992	left	tactile	right	visual	catch	NA	NA	FALSE	FALSE	FALSE	TRUE	TRUE	0	FALSE	FALSE	TRUE
e02	2015	07	20	14	33	m	21	r	59.102946437	3	22	1.049033278	1.30868444698	right	tactile	left	visual	target	voice	349.908410688	FALSE	FALSE	FALSE	FALSE	TRUE	0	FALSE	TRUE	TRUE
e02	2015	07	20	14	33	m	21	r	59.102946437	3	23	0.837604465996	0.714719365642	left	visual	right	visual	target	voice	310.740295026	FALSE	FALSE	FALSE	FALSE	FALSE	0	FALSE	FALSE	TRUE
e02	2015	07	20	14	33	m	21	r	59.102946437	3	24	5.430544631	0.573626389528	right	tactile	right	visual	target	voice	312.603634142	FALSE	FALSE	FALSE	TRUE	TRUE	0	FALSE	TRUE	TRUE
e02	2015	07	20	14	33	m	21	r	59.102946437	3	25	1.440889757	0.715236698426	right	visual	left	tactile	target	voice	206.740751237	FALSE	FALSE	FALSE	FALSE	FALSE	0	FALSE	FALSE	TRUE
e02	2015	07	20	14	33	m	21	r	59.102946437	3	26	1.11056610799	0.827523870842	right	visual	right	visual	target	voice	318.370249821	FALSE	FALSE	FALSE	FALSE	FALSE	0	FALSE	FALSE	TRUE
e02	2015	07	20	14	33	m	21	r	59.102946437	3	27	1.135326647	0.746779152275	right	tactile	left	visual	target	voice	247.90766339	FALSE	FALSE	FALSE	FALSE	FALSE	0	FALSE	FALSE	TRUE
e02	2015	07	20	14	33	m	21	r	59.102946437	3	28	1.05324380701	1.12730143399	right	tactile	left	tactile	target	voice	248.495002656	FALSE	FALSE	FALSE	TRUE	TRUE	0	FALSE	FALSE	TRUE
e02	2015	07	20	14	33	m	21	r	59.102946437	3	29	3.453018461	1.4171235245	right	visual	left	tactile	target	voice	197.156587164	FALSE	FALSE	FALSE	FALSE	FALSE	0	FALSE	FALSE	TRUE
e02	2015	07	20	14	33	m	21	r	59.102946437	3	30	0.773445482002	1.15653952054	right	tactile	left	tactile	target	voice	231.039778126	FALSE	FALSE	FALSE	FALSE	FALSE	0	FALSE	FALSE	TRUE
e02	2015	07	20	14	33	m	21	r	59.102946437	3	31	0.797377236013	1.40649296224	left	visual	right	visual	target	voice	205.433505413	FALSE	FALSE	FALSE	FALSE	FALSE	0	FALSE	FALSE	TRUE
e02	2015	07	20	14	33	m	21	r	59.102946437	3	32	2.778042281	1.21111919112	left	tactile	left	visual	target	voice	237.11017154	FALSE	FALSE	FALSE	FALSE	FALSE	0	FALSE	FALSE	TRUE
e02	2015	07	20	14	33	m	21	r	59.102946437	3	33	1.221093831	0.560122109104	left	visual	left	visual	target	voice	215.326499558	FALSE	FALSE	FALSE	FALSE	FALSE	0	FALSE	FALSE	TRUE
e02	2015	07	20	14	33	m	21	r	59.102946437	3	34	5.32935947299	1.45992845333	right	tactile	right	visual	target	voice	302.332657331	FALSE	FALSE	FALSE	FALSE	TRUE	0	FALSE	TRUE	TRUE
e02	2015	07	20	14	33	m	21	r	59.102946437	3	35	1.53288981899	0.550784367593	right	visual	right	tactile	target	voice	280.39567708	FALSE	FALSE	FALSE	FALSE	FALSE	0	FALSE	FALSE	TRUE
e02	2015	07	20	14	33	m	21	r	59.102946437	3	36	1.70095731299	1.27881338994	right	tactile	right	visual	target	voice	289.088942722	FALSE	FALSE	FALSE	TRUE	TRUE	0	FALSE	FALSE	TRUE
e02	2015	07	20	14	33	m	21	r	59.102946437	3	37	1.73976382101	1.48790389221	left	visual	left	visual	target	voice	355.214517447	FALSE	FALSE	FALSE	TRUE	TRUE	0	FALSE	TRUE	TRUE
e02	2015	07	20	14	33	m	21	r	59.102946437	3	38	1.16184240401	1.0530492978	left	visual	right	visual	target	voice	258.497193863	FALSE	FALSE	FALSE	FALSE	TRUE	0	FALSE	TRUE	TRUE
e02	2015	07	20	14	33	m	21	r	59.102946437	3	39	1.41062800899	0.556351923504	right	visual	left	tactile	target	voice	200.622786171	FALSE	FALSE	FALSE	FALSE	TRUE	0	FALSE	TRUE	TRUE
e02	2015	07	20	14	33	m	21	r	59.102946437	3	40	4.662703797	0.938155454494	left	tactile	right	tactile	target	voice	228.652726175	FALSE	FALSE	FALSE	FALSE	TRUE	0	FALSE	TRUE	TRUE
e02	2015	07	20	14	33	m	21	r	13.526910854	3	41	1.322892586	0.790686062478	left	tactile	right	tactile	target	voice	237.750532178	FALSE	FALSE	FALSE	FALSE	FALSE	0	FALSE	FALSE	TRUE
e02	2015	07	20	14	33	m	21	r	13.526910854	3	42	0.776472907004	1.34806528689	right	visual	right	visual	target	voice	305.775145767	FALSE	FALSE	FALSE	TRUE	TRUE	0	FALSE	FALSE	TRUE
e02	2015	07	20	14	33	m	21	r	13.526910854	3	43	0.669935464	0.697279260969	left	visual	right	tactile	target	voice	230.360856687	FALSE	FALSE	FALSE	TRUE	TRUE	0	TRUE	TRUE	TRUE
e02	2015	07	20	14	33	m	21	r	13.526910854	3	44	0.645692189995	1.13042341644	right	tactile	right	tactile	catch	NA	NA	FALSE	FALSE	FALSE	FALSE	FALSE	0	FALSE	FALSE	TRUE
e02	2015	07	20	14	33	m	21	r	13.526910854	3	45	0.581397287009	0.865472315294	right	visual	left	tactile	target	voice	309.89057738	FALSE	FALSE	FALSE	FALSE	FALSE	0	FALSE	FALSE	TRUE
e02	2015	07	20	14	33	m	21	r	13.526910854	3	46	0.51487596301	1.0334154762	left	tactile	right	visual	target	voice	92.6916364697	FALSE	FALSE	FALSE	TRUE	TRUE	0	FALSE	FALSE	TRUE
e02	2015	07	20	14	33	m	21	r	13.526910854	3	47	0.669661642998	0.707302131254	left	tactile	right	visual	target	voice	321.999532418	FALSE	FALSE	FALSE	TRUE	TRUE	0	FALSE	TRUE	TRUE
e02	2015	07	20	14	33	m	21	r	13.526910854	3	48	1.735227716	0.737020882903	right	tactile	right	tactile	target	voice	312.551017763	FALSE	FALSE	FALSE	FALSE	FALSE	0	FALSE	FALSE	TRUE
e02	2015	07	20	14	33	m	21	r	13.526910854	3	49	0.708348667991	1.13196868822	right	visual	right	visual	target	voice	307.095528449	FALSE	FALSE	FALSE	TRUE	TRUE	0	FALSE	FALSE	TRUE
e02	2015	07	20	14	33	m	21	r	13.526910854	3	50	0.736779379004	1.30757686042	left	tactile	left	visual	target	voice	301.256834253	FALSE	FALSE	FALSE	FALSE	FALSE	0	FALSE	FALSE	TRUE
e02	2015	07	20	14	33	m	21	r	13.526910854	3	51	3.267357234	0.757405027165	left	tactile	left	tactile	target	voice	297.533294506	FALSE	FALSE	FALSE	FALSE	FALSE	0	FALSE	FALSE	TRUE
e02	2015	07	20	14	33	m	21	r	13.526910854	3	52	1.365774069	1.22479328725	left	visual	right	tactile	target	voice	202.777085404	FALSE	FALSE	FALSE	FALSE	TRUE	0	FALSE	TRUE	TRUE
e02	2015	07	20	14	33	m	21	r	13.526910854	3	53	1.31709005199	0.887482201085	left	visual	left	visual	target	voice	302.792042581	FALSE	FALSE	FALSE	TRUE	TRUE	0	TRUE	TRUE	TRUE
e02	2015	07	20	14	33	m	21	r	13.526910854	3	54	0.759259140992	1.10535347541	right	visual	left	visual	catch	voice	286.951961258	FALSE	FALSE	FALSE	FALSE	FALSE	0	FALSE	FALSE	TRUE
e02	2015	07	20	14	33	m	21	r	13.526910854	3	55	1.47510630201	0.59263068659	left	visual	left	visual	target	voice	339.404808066	FALSE	FALSE	FALSE	FALSE	TRUE	0	FALSE	FALSE	TRUE
e02	2015	07	20	14	33	m	21	r	13.526910854	3	56	3.45766144599	1.44561183241	left	tactile	left	tactile	target	voice	264.676512248	FALSE	FALSE	FALSE	FALSE	FALSE	0	FALSE	FALSE	TRUE
e02	2015	07	20	14	33	m	21	r	13.526910854	3	57	4.25598894	1.24191684928	right	tactile	right	tactile	target	voice	259.807662384	FALSE	FALSE	FALSE	FALSE	FALSE	0	FALSE	FALSE	TRUE
e02	2015	07	20	14	33	m	21	r	13.526910854	3	58	1.308417714	0.525065794269	right	tactile	left	visual	target	voice	564.412369407	FALSE	FALSE	FALSE	FALSE	FALSE	0	FALSE	FALSE	TRUE
e02	2015	07	20	14	33	m	21	r	13.526910854	3	59	3.135944678	1.17189030851	right	visual	right	visual	catch	NA	NA	FALSE	FALSE	FALSE	FALSE	TRUE	0	FALSE	TRUE	TRUE
e02	2015	07	20	14	33	m	21	r	13.526910854	3	60	0.892827735996	1.38847401121	left	tactile	left	tactile	target	voice	220.72325545	FALSE	FALSE	FALSE	FALSE	TRUE	0	FALSE	FALSE	TRUE
e02	2015	07	20	14	33	m	21	r	13.526910854	3	61	5.61949565301	1.18878748115	right	visual	right	visual	target	voice	340.573765512	FALSE	FALSE	FALSE	FALSE	FALSE	0	FALSE	FALSE	TRUE
e02	2015	07	20	14	33	m	21	r	13.526910854	3	62	2.07461497201	1.21618815053	right	visual	left	visual	target	voice	345.43327814	FALSE	FALSE	FALSE	TRUE	TRUE	0	FALSE	TRUE	TRUE
e02	2015	07	20	14	33	m	21	r	13.526910854	3	63	5.05872015099	0.643785644855	right	tactile	right	tactile	target	voice	367.386375801	FALSE	FALSE	FALSE	FALSE	TRUE	0	FALSE	FALSE	TRUE
e02	2015	07	20	14	33	m	21	r	13.526910854	3	64	0.773832102001	0.704704505772	right	tactile	left	tactile	target	voice	66.5319718973	FALSE	FALSE	FALSE	FALSE	FALSE	0	FALSE	FALSE	TRUE
e02	2015	07	20	14	33	m	21	r	13.526910854	3	65	2.75271091099	0.791388365942	left	tactile	left	visual	target	voice	347.70743073	FALSE	FALSE	FALSE	FALSE	FALSE	0	FALSE	FALSE	TRUE
e02	2015	07	20	14	33	m	21	r	13.526910854	3	66	4.26623912199	1.38641932388	right	visual	right	visual	target	voice	370.468417779	FALSE	FALSE	FALSE	FALSE	FALSE	0	FALSE	FALSE	TRUE
e02	2015	07	20	14	33	m	21	r	13.526910854	3	67	0.943232392994	0.558248927768	right	visual	right	visual	target	voice	417.80687889	FALSE	FALSE	FALSE	TRUE	TRUE	0	FALSE	TRUE	TRUE
e02	2015	07	20	14	33	m	21	r	13.526910854	3	68	3.27956760999	0.578092750989	right	visual	right	tactile	target	voice	176.092544658	FALSE	FALSE	FALSE	FALSE	TRUE	0	FALSE	TRUE	TRUE
e02	2015	07	20	14	33	m	21	r	13.526910854	3	69	6.974098051	0.958982710115	right	visual	left	tactile	catch	NA	NA	FALSE	FALSE	FALSE	FALSE	FALSE	0	FALSE	FALSE	TRUE
e02	2015	07	20	14	33	m	21	r	13.526910854	3	70	1.383228031	0.889751424923	right	tactile	left	visual	target	voice	342.556425734	FALSE	FALSE	FALSE	FALSE	FALSE	0	FALSE	FALSE	TRUE
e02	2015	07	20	14	33	m	21	r	13.526910854	3	71	2.59673051801	0.958874593388	right	tactile	right	visual	target	voice	293.930907268	FALSE	FALSE	FALSE	FALSE	FALSE	0	FALSE	FALSE	TRUE
e02	2015	07	20	14	33	m	21	r	13.526910854	3	72	4.18156348	0.76311600742	right	tactile	left	tactile	target	voice	284.122275247	FALSE	FALSE	FALSE	FALSE	TRUE	0	FALSE	TRUE	TRUE
e02	2015	07	20	14	33	m	21	r	13.526910854	3	73	4.73405715299	0.963798790849	right	tactile	right	tactile	target	voice	295.013649811	FALSE	FALSE	FALSE	FALSE	TRUE	0	FALSE	FALSE	TRUE
e02	2015	07	20	14	33	m	21	r	13.526910854	3	74	8.69668983799	0.89276944849	left	tactile	left	tactile	target	voice	287.11621718	FALSE	FALSE	FALSE	FALSE	FALSE	0	FALSE	FALSE	TRUE
e02	2015	07	20	14	33	m	21	r	13.526910854	3	75	4.689225701	0.579558311317	left	visual	left	visual	target	voice	358.016000333	FALSE	FALSE	FALSE	FALSE	FALSE	0	FALSE	FALSE	TRUE
e02	2015	07	20	14	33	m	21	r	13.526910854	3	76	6.23305138	0.681248193454	left	visual	right	visual	target	voice	254.472122193	FALSE	FALSE	FALSE	FALSE	TRUE	0	FALSE	FALSE	TRUE
e02	2015	07	20	14	33	m	21	r	13.526910854	3	77	4.104688366	1.37256618024	left	visual	left	tactile	target	voice	214.582295419	FALSE	FALSE	FALSE	FALSE	FALSE	0	FALSE	FALSE	TRUE
e02	2015	07	20	14	33	m	21	r	13.526910854	3	78	0.952503282999	0.701097644026	right	tactile	right	visual	target	voice	396.800544637	FALSE	FALSE	FALSE	FALSE	FALSE	0	FALSE	FALSE	TRUE
e02	2015	07	20	14	33	m	21	r	13.526910854	3	79	0.838069121994	1.25542662541	right	visual	right	tactile	catch	NA	NA	FALSE	FALSE	FALSE	TRUE	TRUE	0	FALSE	TRUE	TRUE
e02	2015	07	20	14	33	m	21	r	13.526910854	3	80	1.23115060299	0.560431773677	right	tactile	right	visual	target	voice	378.753991987	FALSE	FALSE	FALSE	FALSE	FALSE	0	FALSE	FALSE	TRUE
e02	2015	07	20	14	33	m	21	r	11.029083934	3	81	0.755816153003	0.785642450289	left	visual	right	tactile	target	voice	265.784946387	FALSE	FALSE	FALSE	TRUE	TRUE	0	TRUE	TRUE	TRUE
e02	2015	07	20	14	33	m	21	r	11.029083934	3	82	1.46215158601	1.11507317803	right	tactile	right	tactile	target	voice	303.196123627	FALSE	FALSE	FALSE	FALSE	TRUE	0	FALSE	FALSE	TRUE
e02	2015	07	20	14	33	m	21	r	11.029083934	3	83	7.84477933199	1.28775320994	right	visual	left	visual	target	voice	317.806816718	FALSE	FALSE	FALSE	FALSE	FALSE	0	FALSE	FALSE	TRUE
e02	2015	07	20	14	33	m	21	r	11.029083934	3	84	10.096959372	0.926203493621	right	tactile	left	tactile	target	voice	NA	TRUE	FALSE	FALSE	FALSE	TRUE	0	FALSE	FALSE	FALSE
e02	2015	07	20	14	33	m	21	r	11.029083934	3	85	6.91827707201	1.0953403768	right	visual	right	tactile	target	voice	345.971402872	FALSE	FALSE	FALSE	FALSE	FALSE	0	FALSE	FALSE	TRUE
e02	2015	07	20	14	33	m	21	r	11.029083934	3	86	2.98908966201	1.42517374086	right	tactile	right	tactile	target	voice	319.016989801	FALSE	FALSE	FALSE	FALSE	FALSE	0	FALSE	FALSE	TRUE
e02	2015	07	20	14	33	m	21	r	11.029083934	3	87	0.407908074005	1.45902679561	left	tactile	right	visual	target	voice	NA	TRUE	FALSE	FALSE	FALSE	TRUE	0	FALSE	FALSE	FALSE
e02	2015	07	20	14	33	m	21	r	11.029083934	3	88	1.334067633	0.512333567343	left	visual	left	tactile	target	voice	257.173715319	FALSE	FALSE	FALSE	FALSE	FALSE	0	FALSE	FALSE	TRUE
e02	2015	07	20	14	33	m	21	r	11.029083934	3	89	2.491390671	0.842380860069	right	visual	right	visual	target	voice	316.446031604	FALSE	FALSE	FALSE	FALSE	TRUE	0	FALSE	TRUE	TRUE
e02	2015	07	20	14	33	m	21	r	11.029083934	3	90	6.07793610201	0.632340478051	left	visual	left	tactile	catch	NA	NA	FALSE	FALSE	FALSE	FALSE	FALSE	0	FALSE	FALSE	TRUE
e02	2015	07	20	14	33	m	21	r	11.029083934	3	91	1.547633957	1.35957430263	left	tactile	right	visual	target	voice	321.650343045	FALSE	FALSE	FALSE	FALSE	TRUE	0	FALSE	FALSE	TRUE
e02	2015	07	20	14	33	m	21	r	11.029083934	3	92	134.249045664	1.05434971938	left	tactile	left	visual	target	voice	330.701230268	FALSE	FALSE	FALSE	FALSE	FALSE	0	FALSE	FALSE	TRUE
e02	2015	07	20	14	33	m	21	r	11.029083934	3	93	0.717815922995	1.22253188631	left	tactile	left	visual	target	voice	383.797742354	FALSE	FALSE	FALSE	FALSE	FALSE	0	FALSE	FALSE	TRUE
e02	2015	07	20	14	33	m	21	r	11.029083934	3	94	0.457503847996	0.517386131336	right	visual	right	tactile	target	voice	248.807535318	FALSE	FALSE	FALSE	FALSE	FALSE	0	FALSE	FALSE	TRUE
e02	2015	07	20	14	33	m	21	r	11.029083934	3	95	0.439110410996	0.896092220043	left	tactile	left	visual	target	voice	311.530619612	FALSE	FALSE	FALSE	FALSE	TRUE	0	FALSE	TRUE	TRUE
e02	2015	07	20	14	33	m	21	r	11.029083934	3	96	0.824122267004	0.789995978065	left	visual	right	tactile	target	voice	222.334286605	FALSE	FALSE	FALSE	FALSE	FALSE	0	FALSE	FALSE	TRUE
e02	2015	07	20	14	33	m	21	r	11.029083934	3	97	0.603253592999	0.590306275608	left	visual	left	visual	catch	NA	NA	FALSE	FALSE	FALSE	FALSE	TRUE	0	FALSE	TRUE	TRUE
e02	2015	07	20	14	33	m	21	r	11.029083934	3	98	0.608223197007	0.947518711507	left	tactile	left	tactile	target	voice	261.859091159	FALSE	FALSE	FALSE	FALSE	TRUE	0	FALSE	FALSE	TRUE
e02	2015	07	20	14	33	m	21	r	11.029083934	3	99	0.412051040999	0.936754691908	right	visual	left	visual	target	voice	265.477568741	FALSE	FALSE	FALSE	FALSE	TRUE	0	FALSE	TRUE	TRUE
e02	2015	07	20	14	33	m	21	r	11.029083934	3	100	2.65834671201	1.46186288926	left	tactile	left	tactile	target	voice	303.131560402	FALSE	FALSE	FALSE	FALSE	FALSE	0	FALSE	FALSE	TRUE
e02	2015	07	20	14	33	m	21	r	11.029083934	3	101	0.695561797998	0.923607545414	left	tactile	left	visual	target	voice	374.633119252	FALSE	FALSE	FALSE	FALSE	FALSE	0	FALSE	FALSE	TRUE
e02	2015	07	20	14	33	m	21	r	11.029083934	3	102	0.553297803999	0.782292062335	left	visual	left	tactile	target	voice	278.238308339	FALSE	FALSE	FALSE	FALSE	FALSE	0	FALSE	FALSE	TRUE
e02	2015	07	20	14	33	m	21	r	11.029083934	3	103	0.621239343003	0.659409141861	left	tactile	right	tactile	target	voice	170.800103791	FALSE	FALSE	FALSE	FALSE	FALSE	0	FALSE	FALSE	TRUE
e02	2015	07	20	14	33	m	21	r	11.029083934	3	104	0.412489458002	1.06471153084	right	visual	right	visual	target	voice	302.232036833	FALSE	FALSE	FALSE	FALSE	FALSE	0	FALSE	FALSE	TRUE
e02	2015	07	20	14	33	m	21	r	11.029083934	3	105	0.509597733995	0.98059605644	left	visual	left	visual	target	voice	320.645670217	FALSE	FALSE	FALSE	FALSE	TRUE	0	FALSE	TRUE	TRUE
e02	2015	07	20	14	33	m	21	r	11.029083934	3	106	0.407492972008	0.936776019809	right	visual	left	tactile	target	voice	144.500107868	FALSE	FALSE	FALSE	FALSE	TRUE	0	FALSE	FALSE	TRUE
e02	2015	07	20	14	33	m	21	r	11.029083934	3	107	0.439170722006	0.900852121262	left	visual	left	visual	target	voice	255.367011399	FALSE	FALSE	FALSE	FALSE	FALSE	0	FALSE	FALSE	TRUE
e02	2015	07	20	14	33	m	21	r	11.029083934	3	108	0.40706533099	0.790674514692	right	visual	left	visual	target	voice	299.035357966	FALSE	FALSE	FALSE	TRUE	TRUE	0	FALSE	FALSE	TRUE
e02	2015	07	20	14	33	m	21	r	11.029083934	3	109	0.395567650005	0.736203741155	right	tactile	left	tactile	catch	NA	NA	FALSE	FALSE	FALSE	FALSE	FALSE	0	FALSE	FALSE	TRUE
e02	2015	07	20	14	33	m	21	r	11.029083934	3	110	0.410256557996	1.39783390104	left	tactile	left	visual	target	voice	283.962492627	FALSE	FALSE	FALSE	TRUE	TRUE	0	FALSE	FALSE	TRUE
e02	2015	07	20	14	33	m	21	r	11.029083934	3	111	0.441754871004	1.07175671519	left	visual	right	visual	target	voice	286.52327547	FALSE	FALSE	FALSE	FALSE	TRUE	0	FALSE	FALSE	TRUE
e02	2015	07	20	14	33	m	21	r	11.029083934	3	112	0.411043989996	0.902410679623	left	tactile	left	tactile	target	voice	334.11250003	FALSE	FALSE	FALSE	TRUE	TRUE	0	FALSE	FALSE	TRUE
e02	2015	07	20	14	33	m	21	r	11.029083934	3	113	0.466468432001	0.72807149869	right	tactile	right	visual	target	voice	306.79323597	FALSE	FALSE	FALSE	FALSE	FALSE	0	FALSE	FALSE	TRUE
e02	2015	07	20	14	33	m	21	r	11.029083934	3	114	0.567504438004	0.80427292109	left	tactile	right	visual	target	voice	211.187642577	FALSE	FALSE	FALSE	FALSE	FALSE	0	FALSE	FALSE	TRUE
e02	2015	07	20	14	33	m	21	r	11.029083934	3	115	0.430992242997	1.11131056551	left	visual	right	tactile	catch	NA	NA	FALSE	FALSE	FALSE	TRUE	TRUE	0	FALSE	FALSE	TRUE
e02	2015	07	20	14	33	m	21	r	11.029083934	3	116	0.839595072001	0.527567814661	left	visual	left	tactile	target	voice	290.597315005	FALSE	FALSE	FALSE	FALSE	FALSE	0	FALSE	FALSE	TRUE
e02	2015	07	20	14	33	m	21	r	11.029083934	3	117	0.611443293994	0.801182729806	left	tactile	right	visual	target	voice	236.171114855	FALSE	FALSE	FALSE	FALSE	FALSE	0	FALSE	FALSE	TRUE
e02	2015	07	20	14	33	m	21	r	11.029083934	3	118	0.395429383003	0.856049851098	left	tactile	right	visual	target	voice	366.050793571	FALSE	FALSE	FALSE	TRUE	TRUE	0	FALSE	TRUE	TRUE
e02	2015	07	20	14	33	m	21	r	11.029083934	3	119	0.409852268989	0.927175725138	right	tactile	right	tactile	target	voice	193.682460522	FALSE	FALSE	FALSE	FALSE	TRUE	0	FALSE	TRUE	TRUE
e02	2015	07	20	14	33	m	21	r	11.029083934	3	120	0.558946252	0.667899089627	right	visual	right	tactile	target	voice	292.949289025	FALSE	FALSE	FALSE	FALSE	TRUE	0	FALSE	FALSE	TRUE
e02	2015	07	20	14	33	m	21	r	10.809318922	3	121	0.937787075003	1.03708861376	left	tactile	left	tactile	catch	NA	NA	FALSE	FALSE	FALSE	TRUE	TRUE	0	TRUE	TRUE	TRUE
e02	2015	07	20	14	33	m	21	r	10.809318922	3	122	1.053208966	0.718482049585	right	visual	right	tactile	target	voice	241.883293071	FALSE	FALSE	FALSE	TRUE	TRUE	0	FALSE	TRUE	TRUE
e02	2015	07	20	14	33	m	21	r	10.809318922	3	123	0.739391731011	0.638997542015	left	tactile	right	tactile	target	voice	275.458778648	FALSE	FALSE	FALSE	TRUE	TRUE	0	FALSE	TRUE	TRUE
e02	2015	07	20	14	33	m	21	r	10.809318922	3	124	0.701893006	0.619461584379	right	tactile	right	tactile	target	voice	191.218417283	FALSE	FALSE	FALSE	FALSE	TRUE	0	FALSE	FALSE	TRUE
e02	2015	07	20	14	33	m	21	r	10.809318922	3	125	0.448365958	0.889990871981	left	tactile	right	visual	target	voice	291.723647693	FALSE	FALSE	FALSE	FALSE	TRUE	0	FALSE	FALSE	TRUE
e02	2015	07	20	14	33	m	21	r	10.809318922	3	126	0.416994269995	0.624084155143	left	visual	right	visual	catch	NA	NA	FALSE	FALSE	FALSE	TRUE	TRUE	0	FALSE	FALSE	TRUE
e02	2015	07	20	14	33	m	21	r	10.809318922	3	127	0.405713797998	0.92738237796	left	visual	right	tactile	target	voice	212.800598689	FALSE	FALSE	FALSE	FALSE	FALSE	0	FALSE	FALSE	TRUE
e02	2015	07	20	14	33	m	21	r	10.809318922	3	128	0.905985410995	1.03285114111	left	visual	right	tactile	target	voice	214.931921553	FALSE	FALSE	FALSE	FALSE	FALSE	0	FALSE	FALSE	TRUE
e02	2015	07	20	14	33	m	21	r	10.809318922	3	129	0.895102342998	1.44650404888	left	visual	left	tactile	target	voice	203.265575779	FALSE	FALSE	FALSE	TRUE	TRUE	0	TRUE	TRUE	TRUE
e02	2015	07	20	14	33	m	21	r	10.809318922	3	130	0.585426759004	0.507887068078	right	visual	left	tactile	target	voice	283.885248602	FALSE	FALSE	FALSE	TRUE	TRUE	0	TRUE	TRUE	TRUE
e02	2015	07	20	14	33	m	21	r	10.809318922	3	131	0.683943320008	1.38385606536	right	visual	left	visual	target	voice	274.842035316	FALSE	FALSE	FALSE	TRUE	TRUE	0	FALSE	FALSE	TRUE
e02	2015	07	20	14	33	m	21	r	10.809318922	3	132	0.597838108995	1.02183324832	right	tactile	left	visual	target	voice	208.276551348	FALSE	FALSE	FALSE	FALSE	TRUE	0	FALSE	TRUE	TRUE
e02	2015	07	20	14	33	m	21	r	10.809318922	3	133	0.486998569002	0.570963063238	left	visual	left	visual	target	voice	277.222745426	FALSE	FALSE	FALSE	FALSE	FALSE	0	FALSE	FALSE	TRUE
e02	2015	07	20	14	33	m	21	r	10.809318922	3	134	0.417175308001	1.09970838784	right	tactile	left	tactile	target	voice	182.298679822	FALSE	FALSE	FALSE	TRUE	TRUE	0	FALSE	FALSE	TRUE
e02	2015	07	20	14	33	m	21	r	10.809318922	3	135	0.435693061998	0.593894941727	left	visual	right	visual	target	voice	315.412953933	FALSE	FALSE	FALSE	FALSE	TRUE	0	FALSE	TRUE	TRUE
e02	2015	07	20	14	33	m	21	r	10.809318922	3	136	0.431879191005	1.34767858233	right	tactile	right	visual	target	voice	219.934868335	FALSE	FALSE	FALSE	FALSE	TRUE	0	FALSE	FALSE	TRUE
e02	2015	07	20	14	33	m	21	r	10.809318922	3	137	0.453233941997	0.586430342206	left	visual	right	visual	target	voice	290.386844455	FALSE	FALSE	FALSE	FALSE	TRUE	0	FALSE	TRUE	TRUE
e02	2015	07	20	14	33	m	21	r	10.809318922	3	138	0.428794449006	1.33363341015	left	tactile	right	tactile	target	voice	199.358168524	FALSE	FALSE	FALSE	FALSE	TRUE	0	FALSE	FALSE	TRUE
e02	2015	07	20	14	33	m	21	r	10.809318922	3	139	0.537040361	1.10232306475	left	visual	right	tactile	target	voice	220.762405908	FALSE	FALSE	FALSE	FALSE	FALSE	0	FALSE	FALSE	TRUE
e02	2015	07	20	14	33	m	21	r	10.809318922	3	140	0.440385550013	1.12893902181	right	visual	left	visual	target	voice	150.154324845	FALSE	FALSE	FALSE	FALSE	FALSE	0	FALSE	FALSE	TRUE
e02	2015	07	20	14	33	m	21	r	10.809318922	3	141	0.478147403002	0.949837185688	left	tactile	right	tactile	catch	NA	NA	FALSE	FALSE	FALSE	TRUE	TRUE	0	FALSE	FALSE	TRUE
e02	2015	07	20	14	33	m	21	r	10.809318922	3	142	0.412813099014	0.80059572002	right	tactile	left	tactile	target	voice	235.630896641	FALSE	FALSE	FALSE	FALSE	FALSE	0	FALSE	FALSE	TRUE
e02	2015	07	20	14	33	m	21	r	10.809318922	3	143	0.444141767002	0.999594136415	left	tactile	right	tactile	target	voice	213.198199242	FALSE	FALSE	FALSE	FALSE	TRUE	0	FALSE	FALSE	TRUE
e02	2015	07	20	14	33	m	21	r	10.809318922	3	144	0.643370999009	1.22459716877	right	visual	right	tactile	target	voice	500.548217897	FALSE	FALSE	FALSE	TRUE	TRUE	0	FALSE	TRUE	TRUE
e02	2015	07	20	14	33	m	21	r	10.809318922	3	145	0.518202523002	0.836046184218	right	visual	right	tactile	target	voice	260.102180429	FALSE	FALSE	FALSE	FALSE	FALSE	0	FALSE	FALSE	TRUE
e02	2015	07	20	14	33	m	21	r	10.809318922	3	146	0.443215661988	0.736133143055	right	tactile	left	visual	target	voice	234.974019608	FALSE	FALSE	FALSE	FALSE	FALSE	0	FALSE	FALSE	TRUE
e02	2015	07	20	14	33	m	21	r	10.809318922	3	147	0.410609433995	0.760281749524	right	visual	left	visual	target	voice	248.91801714	FALSE	FALSE	FALSE	FALSE	FALSE	0	FALSE	FALSE	TRUE
e02	2015	07	20	14	33	m	21	r	10.809318922	3	148	0.436933953999	0.984429739855	right	visual	left	tactile	target	voice	349.313864819	FALSE	FALSE	FALSE	FALSE	TRUE	0	FALSE	FALSE	TRUE
e02	2015	07	20	14	33	m	21	r	10.809318922	3	149	0.579242417996	0.724648837634	right	tactile	left	visual	target	voice	430.675866024	FALSE	FALSE	FALSE	FALSE	FALSE	0	FALSE	FALSE	TRUE
e02	2015	07	20	14	33	m	21	r	10.809318922	3	150	0.480883594995	1.05672769055	left	visual	left	tactile	target	voice	314.831790107	FALSE	FALSE	FALSE	FALSE	FALSE	0	FALSE	FALSE	TRUE
e02	2015	07	20	14	33	m	21	r	10.809318922	3	151	0.425970492011	0.935615110596	left	visual	left	tactile	target	voice	298.744086074	FALSE	FALSE	FALSE	FALSE	TRUE	0	FALSE	FALSE	TRUE
e02	2015	07	20	14	33	m	21	r	10.809318922	3	152	0.527553021006	1.44183274115	right	tactile	right	visual	catch	NA	NA	FALSE	FALSE	FALSE	FALSE	TRUE	0	FALSE	FALSE	TRUE
e02	2015	07	20	14	33	m	21	r	10.809318922	3	153	0.77159947301	1.3876500846	left	tactile	left	visual	target	voice	226.395072052	FALSE	FALSE	FALSE	FALSE	FALSE	0	FALSE	FALSE	TRUE
e02	2015	07	20	14	33	m	21	r	10.809318922	3	154	0.404465077008	0.831985625443	right	visual	left	visual	target	voice	139.374240214	FALSE	FALSE	FALSE	FALSE	TRUE	0	FALSE	TRUE	TRUE
e02	2015	07	20	14	33	m	21	r	10.809318922	3	155	0.404948998999	1.39887814213	left	tactile	right	visual	target	voice	116.386668524	FALSE	FALSE	FALSE	TRUE	TRUE	0	FALSE	FALSE	TRUE
e02	2015	07	20	14	33	m	21	r	10.809318922	3	156	0.522572835005	1.24492228012	right	tactile	right	tactile	target	voice	222.059249543	FALSE	FALSE	FALSE	FALSE	FALSE	0	FALSE	FALSE	TRUE
e02	2015	07	20	14	33	m	21	r	10.809318922	3	157	0.403312773997	0.501940211211	left	visual	left	tactile	target	voice	324.107441455	FALSE	FALSE	FALSE	FALSE	FALSE	0	FALSE	FALSE	TRUE
e02	2015	07	20	14	33	m	21	r	10.809318922	3	158	0.423372805002	0.923708558012	left	visual	right	tactile	target	voice	191.686341655	FALSE	FALSE	FALSE	FALSE	FALSE	0	FALSE	FALSE	TRUE
e02	2015	07	20	14	33	m	21	r	10.809318922	3	159	0.484582140998	1.32424517654	left	visual	right	visual	target	voice	288.779512121	FALSE	FALSE	FALSE	FALSE	FALSE	0	FALSE	FALSE	TRUE
e02	2015	07	20	14	33	m	21	r	10.809318922	3	160	0.414844489002	1.3936655903	left	tactile	left	visual	catch	NA	NA	FALSE	FALSE	FALSE	FALSE	FALSE	0	FALSE	FALSE	TRUE
e02	2015	07	20	14	33	m	21	r	17.134001424	4	1	1.23816156501	0.972793215719	left	visual	left	tactile	target	voice	NA	TRUE	FALSE	FALSE	FALSE	FALSE	0	FALSE	FALSE	FALSE
e02	2015	07	20	14	33	m	21	r	17.134001424	4	2	1.503373179	0.559499749802	left	visual	right	visual	target	voice	NA	TRUE	FALSE	FALSE	FALSE	FALSE	0	FALSE	FALSE	FALSE
e02	2015	07	20	14	33	m	21	r	17.134001424	4	3	1.478224925	1.24837692148	left	tactile	right	tactile	target	voice	257.599516175	FALSE	FALSE	FALSE	FALSE	FALSE	0	FALSE	FALSE	TRUE
e02	2015	07	20	14	33	m	21	r	17.134001424	4	4	0.613192256991	1.27685624843	right	visual	right	visual	target	voice	311.853438237	FALSE	FALSE	FALSE	FALSE	FALSE	0	FALSE	FALSE	TRUE
e02	2015	07	20	14	33	m	21	r	17.134001424	4	5	0.537309674997	1.03556659447	right	tactile	left	visual	target	voice	259.6610092	FALSE	FALSE	FALSE	FALSE	TRUE	0	FALSE	FALSE	TRUE
e02	2015	07	20	14	33	m	21	r	17.134001424	4	6	1.32478919599	0.756916845565	right	tactile	right	tactile	target	voice	270.9063191	FALSE	FALSE	FALSE	FALSE	TRUE	0	FALSE	FALSE	TRUE
e02	2015	07	20	14	33	m	21	r	17.134001424	4	7	0.859561228994	0.621628995592	left	tactile	left	visual	catch	NA	NA	FALSE	FALSE	FALSE	FALSE	FALSE	0	FALSE	FALSE	TRUE
e02	2015	07	20	14	33	m	21	r	17.134001424	4	8	0.485691843001	1.38642951869	right	visual	left	visual	target	voice	260.399718973	FALSE	FALSE	FALSE	TRUE	TRUE	0	TRUE	TRUE	TRUE
e02	2015	07	20	14	33	m	21	r	17.134001424	4	9	0.414866719992	0.755551390084	left	visual	left	visual	target	voice	380.146942582	FALSE	FALSE	FALSE	FALSE	TRUE	0	FALSE	TRUE	TRUE
e02	2015	07	20	14	33	m	21	r	17.134001424	4	10	0.448783435	0.879577209812	left	visual	left	tactile	target	voice	186.612301841	FALSE	FALSE	FALSE	FALSE	TRUE	0	FALSE	FALSE	TRUE
e02	2015	07	20	14	33	m	21	r	17.134001424	4	11	0.606669788001	1.07841939411	left	tactile	left	tactile	catch	voice	143.783053558	FALSE	FALSE	FALSE	FALSE	TRUE	0	FALSE	TRUE	TRUE
e02	2015	07	20	14	33	m	21	r	17.134001424	4	12	0.622866759004	1.05523271134	right	tactile	right	tactile	target	voice	323.779852319	FALSE	FALSE	FALSE	FALSE	FALSE	0	FALSE	FALSE	TRUE
e02	2015	07	20	14	33	m	21	r	17.134001424	4	13	0.656768471992	1.01698984115	right	visual	left	visual	target	voice	285.747762522	FALSE	FALSE	FALSE	FALSE	FALSE	0	FALSE	FALSE	TRUE
e02	2015	07	20	14	33	m	21	r	17.134001424	4	14	0.540329386	1.32260201424	right	tactile	left	tactile	target	voice	238.367204409	FALSE	FALSE	FALSE	TRUE	TRUE	0	FALSE	FALSE	TRUE
e02	2015	07	20	14	33	m	21	r	17.134001424	4	15	0.464195315013	1.29911040441	left	visual	left	visual	target	voice	352.842518259	FALSE	FALSE	FALSE	FALSE	FALSE	0	FALSE	FALSE	TRUE
e02	2015	07	20	14	33	m	21	r	17.134001424	4	16	0.408522935002	0.879405558973	right	tactile	left	visual	target	voice	296.870646707	FALSE	FALSE	FALSE	FALSE	FALSE	0	FALSE	FALSE	TRUE
e02	2015	07	20	14	33	m	21	r	17.134001424	4	17	0.398432842994	0.782325169681	left	visual	right	tactile	target	voice	207.850130988	FALSE	FALSE	FALSE	TRUE	TRUE	0	FALSE	FALSE	TRUE
e02	2015	07	20	14	33	m	21	r	17.134001424	4	18	0.409921212005	1.01420136716	left	tactile	right	visual	target	voice	266.238831508	FALSE	FALSE	FALSE	TRUE	TRUE	0	FALSE	TRUE	TRUE
e02	2015	07	20	14	33	m	21	r	17.134001424	4	19	0.405039648002	0.879384207076	right	tactile	right	visual	target	voice	237.113844589	FALSE	FALSE	FALSE	TRUE	TRUE	0	FALSE	TRUE	TRUE
e02	2015	07	20	14	33	m	21	r	17.134001424	4	20	1.21000288101	1.47888958712	right	visual	right	visual	target	voice	359.20953055	FALSE	FALSE	FALSE	FALSE	TRUE	0	FALSE	FALSE	TRUE
e02	2015	07	20	14	33	m	21	r	17.134001424	4	21	0.412792862	0.774685316576	right	visual	right	visual	catch	NA	NA	FALSE	FALSE	FALSE	FALSE	TRUE	0	FALSE	FALSE	TRUE
e02	2015	07	20	14	33	m	21	r	17.134001424	4	22	0.465765443994	1.12721152449	left	visual	left	visual	target	voice	276.14937516	FALSE	FALSE	FALSE	FALSE	FALSE	0	FALSE	FALSE	TRUE
e02	2015	07	20	14	33	m	21	r	17.134001424	4	23	0.607562639008	1.31746855824	left	visual	right	visual	target	voice	228.24739643	FALSE	FALSE	FALSE	FALSE	FALSE	0	FALSE	FALSE	TRUE
e02	2015	07	20	14	33	m	21	r	17.134001424	4	24	0.562952938999	0.915329624943	right	visual	left	tactile	target	voice	278.212629724	FALSE	FALSE	FALSE	FALSE	FALSE	0	FALSE	FALSE	TRUE
e02	2015	07	20	14	33	m	21	r	17.134001424	4	25	0.506800345	1.4201450207	left	visual	left	tactile	catch	NA	NA	FALSE	FALSE	FALSE	FALSE	TRUE	0	FALSE	FALSE	TRUE
e02	2015	07	20	14	33	m	21	r	17.134001424	4	26	0.436571605998	0.715669674621	right	tactile	left	tactile	target	voice	278.150756043	FALSE	FALSE	FALSE	TRUE	TRUE	0	FALSE	TRUE	TRUE
e02	2015	07	20	14	33	m	21	r	17.134001424	4	27	0.456213451005	1.07059665511	left	visual	left	visual	catch	NA	NA	FALSE	FALSE	FALSE	FALSE	TRUE	0	FALSE	FALSE	TRUE
e02	2015	07	20	14	33	m	21	r	17.134001424	4	28	0.437060117009	1.19712777993	right	tactile	left	tactile	target	voice	266.852751738	FALSE	FALSE	FALSE	TRUE	TRUE	0	TRUE	TRUE	TRUE
e02	2015	07	20	14	33	m	21	r	17.134001424	4	29	0.402977873004	0.670635162288	right	tactile	right	tactile	target	voice	278.184151379	FALSE	FALSE	FALSE	TRUE	TRUE	0	TRUE	TRUE	TRUE
e02	2015	07	20	14	33	m	21	r	17.134001424	4	30	0.403912178997	1.47746529282	left	tactile	left	tactile	target	voice	269.634258846	FALSE	FALSE	FALSE	TRUE	TRUE	0	FALSE	FALSE	TRUE
e02	2015	07	20	14	33	m	21	r	17.134001424	4	31	0.391073883991	1.23023453189	left	visual	right	tactile	target	voice	202.716039785	FALSE	FALSE	FALSE	FALSE	FALSE	0	FALSE	FALSE	TRUE
e02	2015	07	20	14	33	m	21	r	17.134001424	4	32	0.413211332998	0.756877795892	left	tactile	left	visual	target	voice	427.283582758	FALSE	FALSE	FALSE	FALSE	FALSE	0	FALSE	FALSE	TRUE
e02	2015	07	20	14	33	m	21	r	17.134001424	4	33	0.411853371988	1.03051660433	right	tactile	left	visual	target	voice	346.896223331	FALSE	FALSE	FALSE	FALSE	TRUE	0	FALSE	FALSE	TRUE
e02	2015	07	20	14	33	m	21	r	17.134001424	4	34	0.412877093011	0.971066638221	right	tactile	left	tactile	target	voice	212.322291452	FALSE	FALSE	FALSE	FALSE	TRUE	0	FALSE	TRUE	TRUE
e02	2015	07	20	14	33	m	21	r	17.134001424	4	35	0.408150993011	1.3430185403	right	visual	left	visual	target	voice	247.195202362	FALSE	FALSE	FALSE	FALSE	TRUE	0	FALSE	FALSE	TRUE
e02	2015	07	20	14	33	m	21	r	17.134001424	4	36	1.71203435701	1.17381875989	right	visual	right	tactile	target	voice	195.737596761	FALSE	FALSE	FALSE	TRUE	TRUE	0	TRUE	TRUE	TRUE
e02	2015	07	20	14	33	m	21	r	17.134001424	4	37	0.982928297002	1.07668777218	left	visual	right	visual	target	voice	294.731564485	FALSE	FALSE	FALSE	TRUE	TRUE	0	FALSE	FALSE	TRUE
e02	2015	07	20	14	33	m	21	r	17.134001424	4	38	0.472748865999	1.24370992584	left	visual	right	tactile	target	voice	218.184805824	FALSE	FALSE	FALSE	TRUE	TRUE	0	FALSE	FALSE	TRUE
e02	2015	07	20	14	33	m	21	r	17.134001424	4	39	0.440934725993	1.3153564832	left	tactile	right	visual	target	voice	319.272790468	FALSE	FALSE	FALSE	FALSE	FALSE	0	FALSE	FALSE	TRUE
e02	2015	07	20	14	33	m	21	r	17.134001424	4	40	0.408856642011	1.03254905795	right	visual	left	tactile	target	voice	203.312156693	FALSE	FALSE	FALSE	FALSE	FALSE	0	FALSE	FALSE	TRUE
e02	2015	07	20	14	33	m	21	r	9.32800493999	4	41	2.333108772	0.83855930784	right	tactile	right	tactile	target	voice	208.680170821	FALSE	FALSE	FALSE	FALSE	FALSE	0	FALSE	FALSE	TRUE
e02	2015	07	20	14	33	m	21	r	9.32800493999	4	42	0.440693682001	0.739511712768	right	tactile	left	visual	catch	NA	NA	FALSE	FALSE	FALSE	FALSE	FALSE	0	FALSE	FALSE	TRUE
e02	2015	07	20	14	33	m	21	r	9.32800493999	4	43	0.403956007998	1.16161769447	left	tactile	left	tactile	target	voice	310.863365201	FALSE	FALSE	FALSE	TRUE	TRUE	0	TRUE	TRUE	TRUE
e02	2015	07	20	14	33	m	21	r	9.32800493999	4	44	0.443877009006	0.991427538729	left	tactile	right	tactile	target	voice	203.752406931	FALSE	FALSE	FALSE	FALSE	FALSE	0	FALSE	FALSE	TRUE
e02	2015	07	20	14	33	m	21	r	9.32800493999	4	45	0.455226776001	0.708664783837	left	tactile	left	visual	target	voice	338.350848833	FALSE	FALSE	FALSE	FALSE	FALSE	0	FALSE	FALSE	TRUE
e02	2015	07	20	14	33	m	21	r	9.32800493999	4	46	0.405305559994	0.584527328582	left	visual	left	visual	target	voice	302.286776088	FALSE	FALSE	FALSE	TRUE	TRUE	0	TRUE	TRUE	TRUE
e02	2015	07	20	14	33	m	21	r	9.32800493999	4	47	0.407804119997	0.944305092201	right	visual	right	tactile	target	voice	176.280471467	FALSE	FALSE	FALSE	TRUE	TRUE	0	TRUE	TRUE	TRUE
e02	2015	07	20	14	33	m	21	r	9.32800493999	4	48	0.411080553007	1.06478787518	right	tactile	right	visual	target	voice	188.550210485	FALSE	FALSE	FALSE	FALSE	FALSE	0	FALSE	FALSE	TRUE
e02	2015	07	20	14	33	m	21	r	9.32800493999	4	49	0.403120310002	0.610616030885	left	tactile	right	tactile	target	voice	276.280658771	FALSE	FALSE	FALSE	TRUE	TRUE	0	FALSE	FALSE	TRUE
e02	2015	07	20	14	33	m	21	r	9.32800493999	4	50	0.399407117002	0.785667651987	right	tactile	right	visual	target	voice	165.967235676	FALSE	FALSE	FALSE	FALSE	TRUE	0	FALSE	TRUE	TRUE
e02	2015	07	20	14	33	m	21	r	9.32800493999	4	51	0.429401582995	0.816969193151	left	visual	left	visual	target	voice	289.626722501	FALSE	FALSE	FALSE	TRUE	TRUE	0	FALSE	FALSE	TRUE
e02	2015	07	20	14	33	m	21	r	9.32800493999	4	52	0.412486422007	1.16845487921	right	tactile	right	tactile	catch	voice	333.620070451	FALSE	FALSE	FALSE	TRUE	TRUE	0	FALSE	FALSE	TRUE
