id	year	month	day	hour	minute	sex	age	handedness	message_viewing_time	block	trial_num	trial_initiation_time	fixation_duration	cue_location	cue_modality	target_location	target_modality	target_type	target_response_key	target_response_rt	pre_target_response	feedback_response	recalibration	blink	saccade	biggest_small_saccade	critical_blink	critical_saccade	target_started_TF
e12	2015	07	30	17	43	f	21	r	19.325679706	practice	1	8.14245886201	1.18769203706	left	tactile	right	visual	target	voice	263.04041862	FALSE	FALSE	FALSE	FALSE	FALSE	0	FALSE	FALSE	TRUE
e12	2015	07	30	17	43	f	21	r	19.325679706	practice	2	3.13466964199	1.29613612872	right	visual	left	tactile	target	voice	NA	TRUE	FALSE	FALSE	FALSE	FALSE	0	FALSE	FALSE	FALSE
e12	2015	07	30	17	43	f	21	r	19.325679706	practice	3	2.28896776401	1.2739365264	left	visual	right	tactile	target	voice	NA	TRUE	FALSE	FALSE	FALSE	FALSE	0	FALSE	FALSE	FALSE
e12	2015	07	30	17	43	f	21	r	19.325679706	practice	4	1.56181116201	0.829487353417	right	tactile	right	tactile	catch	voice	NA	TRUE	FALSE	FALSE	FALSE	FALSE	0	FALSE	FALSE	FALSE
e12	2015	07	30	17	43	f	21	r	19.325679706	practice	5	5.50801135	0.825540004877	right	tactile	left	visual	target	voice	NA	TRUE	FALSE	FALSE	FALSE	FALSE	0	FALSE	FALSE	FALSE
e12	2015	07	30	17	43	f	21	r	19.325679706	practice	6	1.097139399	1.05025056322	right	visual	left	tactile	target	voice	NA	TRUE	FALSE	FALSE	FALSE	TRUE	0	FALSE	FALSE	FALSE
e12	2015	07	30	17	43	f	21	r	19.325679706	practice	7	1.65744735699	1.40547713075	right	tactile	left	tactile	target	voice	NA	TRUE	FALSE	FALSE	FALSE	FALSE	0	FALSE	FALSE	FALSE
e12	2015	07	30	17	43	f	21	r	19.325679706	practice	8	1.032089766	0.779718538801	right	tactile	left	visual	target	voice	511.792189878	FALSE	FALSE	FALSE	FALSE	FALSE	0	FALSE	FALSE	TRUE
e12	2015	07	30	17	43	f	21	r	19.325679706	practice	9	1.17351570402	1.48867800824	right	visual	left	visual	target	voice	649.102653435	FALSE	FALSE	FALSE	FALSE	FALSE	0	FALSE	FALSE	TRUE
e12	2015	07	30	17	43	f	21	r	19.325679706	practice	10	1.381669569	1.20306017457	left	visual	left	tactile	target	voice	575.390428101	FALSE	FALSE	FALSE	FALSE	TRUE	0	FALSE	FALSE	TRUE
e12	2015	07	30	17	43	f	21	r	19.325679706	practice	11	0.764260705997	1.11302622827	right	visual	right	tactile	target	voice	495.299534407	FALSE	FALSE	FALSE	FALSE	TRUE	0	FALSE	FALSE	TRUE
e12	2015	07	30	17	43	f	21	r	19.325679706	practice	12	1.10465818102	0.956262493959	left	tactile	left	visual	target	voice	502.686115709	FALSE	FALSE	FALSE	FALSE	TRUE	0	FALSE	TRUE	TRUE
e12	2015	07	30	17	43	f	21	r	19.325679706	practice	13	0.924804432987	0.803201738913	right	tactile	left	tactile	target	voice	30.5850917648	FALSE	FALSE	FALSE	FALSE	FALSE	0	FALSE	FALSE	TRUE
e12	2015	07	30	17	43	f	21	r	19.325679706	practice	14	1.86517242598	0.767029538941	left	tactile	left	visual	target	voice	619.861499697	FALSE	FALSE	FALSE	FALSE	FALSE	0	FALSE	FALSE	TRUE
e12	2015	07	30	17	43	f	21	r	19.325679706	practice	15	0.574119074998	1.35630335471	right	tactile	right	tactile	target	voice	NA	TRUE	FALSE	FALSE	FALSE	FALSE	0	FALSE	FALSE	FALSE
e12	2015	07	30	17	43	f	21	r	19.325679706	practice	16	1.79452518601	1.04428370729	left	tactile	left	visual	target	voice	483.695994393	FALSE	FALSE	FALSE	FALSE	FALSE	0	FALSE	FALSE	TRUE
e12	2015	07	30	17	43	f	21	r	19.325679706	practice	17	0.752819661982	0.712999702736	left	visual	right	visual	target	voice	506.519363931	FALSE	FALSE	FALSE	FALSE	FALSE	0	FALSE	FALSE	TRUE
e12	2015	07	30	17	43	f	21	r	19.325679706	practice	18	2.659209031	1.09271457257	right	visual	right	tactile	catch	NA	NA	FALSE	FALSE	FALSE	FALSE	TRUE	0	FALSE	TRUE	TRUE
e12	2015	07	30	17	43	f	21	r	19.325679706	practice	19	1.52461297699	1.23129827079	right	visual	right	tactile	target	voice	650.227978884	FALSE	FALSE	FALSE	FALSE	FALSE	0	FALSE	FALSE	TRUE
e12	2015	07	30	17	43	f	21	r	19.325679706	practice	20	0.577591829991	1.29295929531	right	tactile	right	visual	target	voice	494.659605349	FALSE	FALSE	FALSE	FALSE	TRUE	0	FALSE	FALSE	TRUE
e12	2015	07	30	17	43	f	21	r	19.325679706	practice	21	0.588631826016	0.865004135526	left	visual	right	visual	target	voice	535.408636119	FALSE	FALSE	FALSE	FALSE	FALSE	0	FALSE	FALSE	TRUE
e12	2015	07	30	17	43	f	21	r	19.325679706	practice	22	0.681885839993	1.00477298139	right	visual	left	visual	target	NA	NA	FALSE	FALSE	FALSE	FALSE	TRUE	0	FALSE	FALSE	TRUE
e12	2015	07	30	17	43	f	21	r	19.325679706	practice	23	1.05423692701	0.680482278308	right	visual	right	visual	target	voice	599.681258347	FALSE	FALSE	FALSE	FALSE	TRUE	0	FALSE	TRUE	TRUE
e12	2015	07	30	17	43	f	21	r	19.325679706	practice	24	0.565953534999	0.980344990519	right	visual	right	tactile	target	voice	413.257985143	FALSE	FALSE	FALSE	FALSE	TRUE	0	FALSE	TRUE	TRUE
e12	2015	07	30	17	43	f	21	r	19.325679706	practice	25	0.694047841011	0.900751095763	right	visual	left	visual	target	voice	490.533006901	FALSE	FALSE	FALSE	FALSE	TRUE	0	FALSE	TRUE	TRUE
e12	2015	07	30	17	43	f	21	r	19.325679706	practice	26	0.477037202014	0.601309121827	left	tactile	right	tactile	target	voice	821.353049862	FALSE	FALSE	FALSE	FALSE	TRUE	0	FALSE	TRUE	TRUE
e12	2015	07	30	17	43	f	21	r	19.325679706	practice	27	0.490584186016	1.32934726231	right	visual	left	visual	catch	NA	NA	FALSE	FALSE	FALSE	FALSE	TRUE	0	FALSE	TRUE	TRUE
e12	2015	07	30	17	43	f	21	r	19.325679706	practice	28	1.23013240399	1.12789815923	left	tactile	left	visual	target	voice	535.576902417	FALSE	FALSE	FALSE	FALSE	TRUE	0	FALSE	TRUE	TRUE
e12	2015	07	30	17	43	f	21	r	19.325679706	practice	29	0.674101401994	0.945661548038	left	tactile	left	tactile	target	NA	NA	FALSE	FALSE	FALSE	FALSE	TRUE	0	FALSE	FALSE	TRUE
e12	2015	07	30	17	43	f	21	r	19.325679706	practice	30	1.46964694199	0.719806799336	right	visual	right	visual	catch	NA	NA	FALSE	FALSE	FALSE	FALSE	FALSE	0	FALSE	FALSE	TRUE
e12	2015	07	30	17	43	f	21	r	19.325679706	practice	31	0.99143478999	1.0726622632	left	visual	right	tactile	catch	NA	NA	FALSE	FALSE	FALSE	FALSE	FALSE	0	FALSE	FALSE	TRUE
e12	2015	07	30	17	43	f	21	r	19.325679706	practice	32	0.802720349981	1.43326736653	right	tactile	right	tactile	target	voice	605.773669144	FALSE	FALSE	FALSE	FALSE	FALSE	0	FALSE	FALSE	TRUE
e12	2015	07	30	17	43	f	21	r	19.325679706	practice	33	2.72402945301	0.631498133839	right	tactile	right	tactile	target	voice	843.318962812	FALSE	FALSE	FALSE	FALSE	TRUE	0	FALSE	TRUE	TRUE
e12	2015	07	30	17	43	f	21	r	19.325679706	practice	34	0.497011058993	0.606210982268	right	visual	left	tactile	catch	NA	NA	FALSE	FALSE	FALSE	FALSE	TRUE	0	FALSE	TRUE	TRUE
e12	2015	07	30	17	43	f	21	r	19.325679706	practice	35	0.728968793002	0.919150810668	right	tactile	right	tactile	target	voice	722.723477025	FALSE	FALSE	FALSE	FALSE	FALSE	0	FALSE	FALSE	TRUE
e12	2015	07	30	17	43	f	21	r	19.325679706	practice	36	0.865532622003	0.826988815413	right	visual	left	visual	target	voice	590.746789239	FALSE	FALSE	FALSE	FALSE	TRUE	0	FALSE	TRUE	TRUE
e12	2015	07	30	17	43	f	21	r	19.325679706	practice	37	0.625241700007	0.565765513954	left	tactile	right	visual	target	voice	653.895600699	FALSE	FALSE	FALSE	FALSE	TRUE	0	FALSE	TRUE	TRUE
e12	2015	07	30	17	43	f	21	r	19.325679706	practice	38	0.50336664202	1.41926706868	left	tactile	right	tactile	target	voice	486.581830977	FALSE	FALSE	FALSE	FALSE	TRUE	0	FALSE	FALSE	TRUE
e12	2015	07	30	17	43	f	21	r	19.325679706	practice	39	0.519521095994	1.4056218807	left	visual	right	visual	target	voice	624.150868971	FALSE	FALSE	FALSE	FALSE	TRUE	0	FALSE	FALSE	TRUE
e12	2015	07	30	17	43	f	21	r	19.325679706	practice	40	1.64583683599	0.528982388037	left	visual	left	tactile	target	voice	851.527809631	FALSE	FALSE	FALSE	FALSE	TRUE	0	FALSE	FALSE	TRUE
e12	2015	07	30	17	43	f	21	r	77.473508419	1	1	11.351140672	1.15204216449	right	tactile	right	visual	target	voice	427.853024186	FALSE	FALSE	FALSE	FALSE	TRUE	0	FALSE	TRUE	TRUE
e12	2015	07	30	17	43	f	21	r	77.473508419	1	2	0.860715546005	0.642254717982	right	visual	left	tactile	target	voice	381.444818689	FALSE	FALSE	FALSE	FALSE	TRUE	0	FALSE	TRUE	TRUE
e12	2015	07	30	17	43	f	21	r	77.473508419	1	3	0.514919926994	0.668518986173	right	visual	left	tactile	target	voice	364.358338498	FALSE	FALSE	FALSE	FALSE	TRUE	0	FALSE	TRUE	TRUE
e12	2015	07	30	17	43	f	21	r	77.473508419	1	4	0.624294585985	1.19107126674	right	visual	right	visual	target	voice	738.642038923	FALSE	FALSE	FALSE	FALSE	TRUE	0	FALSE	FALSE	TRUE
e12	2015	07	30	17	43	f	21	r	77.473508419	1	5	0.397746939998	0.716746166776	right	tactile	left	tactile	target	voice	548.212305875	FALSE	FALSE	FALSE	FALSE	TRUE	0	FALSE	TRUE	TRUE
e12	2015	07	30	17	43	f	21	r	77.473508419	1	6	0.459089462995	0.863395005238	left	tactile	right	visual	target	voice	499.31709643	FALSE	FALSE	FALSE	FALSE	TRUE	0	FALSE	FALSE	TRUE
e12	2015	07	30	17	43	f	21	r	77.473508419	1	7	3.208368205	1.02510481219	right	tactile	left	visual	target	voice	NA	TRUE	FALSE	FALSE	FALSE	FALSE	0	FALSE	FALSE	FALSE
e12	2015	07	30	17	43	f	21	r	77.473508419	1	8	5.513886108	0.551489620465	left	visual	left	visual	target	NA	NA	FALSE	FALSE	FALSE	FALSE	TRUE	0	FALSE	FALSE	TRUE
e12	2015	07	30	17	43	f	21	r	77.473508419	1	9	1.35949319502	1.40747709891	right	visual	right	visual	target	voice	558.678811765	FALSE	FALSE	FALSE	FALSE	TRUE	0	FALSE	TRUE	TRUE
e12	2015	07	30	17	43	f	21	r	77.473508419	1	10	0.39733774701	0.658944516508	right	tactile	right	visual	target	voice	503.930208157	FALSE	FALSE	FALSE	FALSE	TRUE	0	FALSE	TRUE	TRUE
e12	2015	07	30	17	43	f	21	r	77.473508419	1	11	0.399737303	0.939200034777	right	tactile	left	tactile	catch	NA	NA	FALSE	FALSE	FALSE	FALSE	TRUE	0	FALSE	TRUE	TRUE
e12	2015	07	30	17	43	f	21	r	77.473508419	1	12	1.03286013901	1.48639810292	right	visual	left	visual	target	voice	682.785039739	FALSE	FALSE	FALSE	FALSE	FALSE	0	FALSE	FALSE	TRUE
e12	2015	07	30	17	43	f	21	r	77.473508419	1	13	0.481330346985	1.30904479304	left	visual	right	visual	target	voice	736.952290637	FALSE	FALSE	FALSE	TRUE	TRUE	0	FALSE	TRUE	TRUE
e12	2015	07	30	17	43	f	21	r	77.473508419	1	14	2.99023512698	1.00636256415	left	tactile	right	tactile	catch	NA	NA	FALSE	FALSE	FALSE	FALSE	FALSE	0	FALSE	FALSE	TRUE
e12	2015	07	30	17	43	f	21	r	77.473508419	1	15	1.352147328	0.760664153066	right	tactile	right	tactile	catch	NA	NA	FALSE	FALSE	FALSE	FALSE	FALSE	0	FALSE	FALSE	TRUE
e12	2015	07	30	17	43	f	21	r	77.473508419	1	16	3.067318685	0.677349985438	right	visual	left	visual	target	voice	719.534947246	FALSE	FALSE	FALSE	FALSE	TRUE	0	FALSE	FALSE	TRUE
e12	2015	07	30	17	43	f	21	r	77.473508419	1	17	0.671716279991	0.833959035643	left	visual	left	visual	target	voice	842.625809019	FALSE	FALSE	FALSE	FALSE	FALSE	0	FALSE	FALSE	TRUE
e12	2015	07	30	17	43	f	21	r	77.473508419	1	18	0.477582640975	0.658829853954	right	visual	left	tactile	target	NA	NA	FALSE	FALSE	FALSE	FALSE	FALSE	0	FALSE	FALSE	TRUE
e12	2015	07	30	17	43	f	21	r	77.473508419	1	19	1.646003378	1.04475742065	right	tactile	right	tactile	target	NA	NA	FALSE	FALSE	FALSE	FALSE	TRUE	0	FALSE	FALSE	TRUE
e12	2015	07	30	17	43	f	21	r	77.473508419	1	20	2.90390268998	0.584811563911	left	tactile	left	tactile	target	NA	NA	FALSE	FALSE	FALSE	FALSE	TRUE	0	FALSE	TRUE	TRUE
e12	2015	07	30	17	43	f	21	r	77.473508419	1	21	1.074230086	0.623568480882	left	visual	left	tactile	target	voice	516.389713768	FALSE	FALSE	FALSE	FALSE	TRUE	0	FALSE	TRUE	TRUE
e12	2015	07	30	17	43	f	21	r	77.473508419	1	22	2.10579030399	0.539456225477	left	tactile	right	visual	target	voice	462.942618178	FALSE	FALSE	FALSE	FALSE	TRUE	0	FALSE	FALSE	TRUE
e12	2015	07	30	17	43	f	21	r	77.473508419	1	23	0.660791755014	0.818659050664	left	tactile	right	tactile	target	voice	419.091965014	FALSE	FALSE	FALSE	FALSE	TRUE	0	FALSE	TRUE	TRUE
e12	2015	07	30	17	43	f	21	r	77.473508419	1	24	12.604481661	1.11821027982	left	tactile	left	visual	target	voice	471.299399826	FALSE	FALSE	FALSE	FALSE	FALSE	0	FALSE	FALSE	TRUE
e12	2015	07	30	17	43	f	21	r	77.473508419	1	25	0.822944585991	1.27545991038	left	visual	right	visual	target	voice	530.329825269	FALSE	FALSE	FALSE	FALSE	TRUE	0	FALSE	FALSE	TRUE
e12	2015	07	30	17	43	f	21	r	77.473508419	1	26	0.49015181401	0.961667759114	left	visual	left	visual	target	voice	547.345184546	FALSE	FALSE	FALSE	FALSE	TRUE	0	FALSE	FALSE	TRUE
e12	2015	07	30	17	43	f	21	r	77.473508419	1	27	0.58821528402	1.48018170064	left	tactile	left	visual	target	voice	506.715594034	FALSE	FALSE	FALSE	FALSE	TRUE	0	FALSE	FALSE	TRUE
e12	2015	07	30	17	43	f	21	r	77.473508419	1	28	0.723740860994	0.749471147367	right	tactile	right	visual	target	voice	585.901659273	FALSE	FALSE	FALSE	FALSE	TRUE	0	FALSE	FALSE	TRUE
e12	2015	07	30	17	43	f	21	r	77.473508419	1	29	0.613086879021	0.865593429829	right	tactile	left	visual	target	voice	462.664126826	FALSE	FALSE	FALSE	FALSE	TRUE	0	FALSE	TRUE	TRUE
e12	2015	07	30	17	43	f	21	r	77.473508419	1	30	0.531150020979	1.46699239259	right	visual	left	visual	catch	NA	NA	FALSE	FALSE	FALSE	FALSE	FALSE	0	FALSE	FALSE	TRUE
e12	2015	07	30	17	43	f	21	r	77.473508419	1	31	1.29294950599	0.81154835963	left	tactile	right	tactile	target	voice	526.705775002	FALSE	FALSE	FALSE	FALSE	FALSE	0	FALSE	FALSE	TRUE
e12	2015	07	30	17	43	f	21	r	77.473508419	1	32	0.641101704008	1.33437492002	left	tactile	right	tactile	target	voice	560.78328265	FALSE	FALSE	FALSE	FALSE	FALSE	0	FALSE	FALSE	TRUE
e12	2015	07	30	17	43	f	21	r	77.473508419	1	33	0.521657525009	0.678512457109	right	visual	left	tactile	target	voice	636.858763552	FALSE	FALSE	FALSE	FALSE	TRUE	0	FALSE	FALSE	TRUE
e12	2015	07	30	17	43	f	21	r	77.473508419	1	34	0.582199078985	0.999399613908	left	tactile	right	visual	target	NA	NA	FALSE	FALSE	FALSE	FALSE	TRUE	0	FALSE	FALSE	TRUE
e12	2015	07	30	17	43	f	21	r	77.473508419	1	35	1.58811183798	0.861742874659	left	tactile	left	visual	target	NA	NA	FALSE	FALSE	FALSE	FALSE	TRUE	0	FALSE	FALSE	TRUE
e12	2015	07	30	17	43	f	21	r	77.473508419	1	36	1.08158089098	0.90957953253	right	tactile	left	visual	target	voice	399.095144123	FALSE	FALSE	FALSE	FALSE	FALSE	0	FALSE	FALSE	TRUE
e12	2015	07	30	17	43	f	21	r	77.473508419	1	37	0.421689650015	1.43780288101	right	visual	right	visual	target	voice	585.238682659	FALSE	FALSE	FALSE	FALSE	TRUE	0	FALSE	TRUE	TRUE
e12	2015	07	30	17	43	f	21	r	77.473508419	1	38	2.845783956	0.557714296458	right	visual	right	tactile	target	voice	581.035555224	FALSE	FALSE	FALSE	FALSE	TRUE	0	FALSE	TRUE	TRUE
e12	2015	07	30	17	43	f	21	r	77.473508419	1	39	0.627117925003	0.929888084476	right	tactile	left	tactile	target	voice	639.675772196	FALSE	FALSE	FALSE	FALSE	TRUE	0	FALSE	TRUE	TRUE
e12	2015	07	30	17	43	f	21	r	77.473508419	1	40	0.585449729988	0.973912451257	left	tactile	left	tactile	target	NA	NA	FALSE	FALSE	FALSE	FALSE	FALSE	0	FALSE	FALSE	TRUE
e12	2015	07	30	17	43	f	21	r	18.719765361	1	41	4.71313834502	0.879206308877	right	tactile	right	tactile	target	voice	478.171699768	FALSE	FALSE	FALSE	FALSE	FALSE	0	FALSE	FALSE	TRUE
e12	2015	07	30	17	43	f	21	r	18.719765361	1	42	0.708456676017	0.766430289048	right	visual	right	tactile	catch	NA	NA	FALSE	FALSE	FALSE	FALSE	TRUE	0	FALSE	TRUE	TRUE
e12	2015	07	30	17	43	f	21	r	18.719765361	1	43	1.01736966401	0.708720584823	right	visual	right	tactile	target	voice	494.309241825	FALSE	FALSE	FALSE	FALSE	FALSE	0	FALSE	FALSE	TRUE
e12	2015	07	30	17	43	f	21	r	18.719765361	1	44	3.096422353	0.758109403607	right	visual	right	tactile	target	voice	519.629232062	FALSE	FALSE	FALSE	FALSE	FALSE	0	FALSE	FALSE	TRUE
e12	2015	07	30	17	43	f	21	r	18.719765361	1	45	0.667815199995	0.544288554472	left	tactile	right	visual	target	voice	668.806985195	FALSE	FALSE	FALSE	FALSE	TRUE	0	FALSE	TRUE	TRUE
e12	2015	07	30	17	43	f	21	r	18.719765361	1	46	4.36514089801	1.14990643785	right	visual	left	tactile	target	voice	419.726393826	FALSE	FALSE	FALSE	FALSE	FALSE	0	FALSE	FALSE	TRUE
e12	2015	07	30	17	43	f	21	r	18.719765361	1	47	1.01160111901	1.48344154204	left	tactile	right	visual	target	voice	405.002774613	FALSE	FALSE	FALSE	FALSE	TRUE	0	FALSE	TRUE	TRUE
e12	2015	07	30	17	43	f	21	r	18.719765361	1	48	0.819412429992	0.99635597589	right	visual	left	tactile	target	voice	472.009518795	FALSE	FALSE	FALSE	FALSE	TRUE	0	FALSE	FALSE	TRUE
e12	2015	07	30	17	43	f	21	r	18.719765361	1	49	0.605250983994	0.98493512519	right	tactile	left	visual	target	voice	596.222958469	FALSE	FALSE	FALSE	FALSE	TRUE	0	FALSE	FALSE	TRUE
e12	2015	07	30	17	43	f	21	r	18.719765361	1	50	0.631969017995	1.30751271816	right	visual	right	tactile	target	voice	509.247929498	FALSE	FALSE	FALSE	FALSE	TRUE	0	FALSE	TRUE	TRUE
e12	2015	07	30	17	43	f	21	r	18.719765361	1	51	2.693458275	0.659056409719	right	visual	left	visual	target	voice	668.631991954	FALSE	FALSE	FALSE	FALSE	TRUE	0	FALSE	TRUE	TRUE
e12	2015	07	30	17	43	f	21	r	18.719765361	1	52	2.895941208	1.25061582502	right	tactile	right	visual	target	voice	NA	TRUE	FALSE	FALSE	FALSE	FALSE	0	FALSE	FALSE	FALSE
e12	2015	07	30	17	43	f	21	r	18.719765361	1	53	3.61841604198	0.917516584062	left	tactile	right	tactile	target	voice	452.958500595	FALSE	FALSE	FALSE	FALSE	FALSE	0	FALSE	FALSE	TRUE
e12	2015	07	30	17	43	f	21	r	18.719765361	1	54	3.37314630399	1.23071084718	left	visual	right	visual	target	voice	595.864283474	FALSE	FALSE	FALSE	TRUE	TRUE	0	FALSE	TRUE	TRUE
e12	2015	07	30	17	43	f	21	r	18.719765361	1	55	4.98029362698	0.979547399379	left	visual	left	tactile	target	voice	421.828586288	FALSE	FALSE	FALSE	FALSE	TRUE	0	FALSE	TRUE	TRUE
e12	2015	07	30	17	43	f	21	r	18.719765361	1	56	24.152275307	1.28745370262	right	tactile	left	tactile	target	voice	818.355885043	FALSE	FALSE	FALSE	TRUE	TRUE	0	TRUE	TRUE	TRUE
e12	2015	07	30	17	43	f	21	r	18.719765361	1	57	151.644503022	0.977831732245	left	visual	left	tactile	target	voice	NA	TRUE	FALSE	FALSE	FALSE	TRUE	0	FALSE	FALSE	FALSE
e12	2015	07	30	17	43	f	21	r	18.719765361	1	58	7.03720823099	0.505755874847	left	tactile	right	visual	catch	NA	NA	FALSE	FALSE	FALSE	FALSE	TRUE	0	FALSE	TRUE	TRUE
e12	2015	07	30	17	43	f	21	r	18.719765361	1	59	2.364593576	1.01291485517	right	visual	left	visual	target	voice	475.810009491	FALSE	FALSE	FALSE	FALSE	FALSE	0	FALSE	FALSE	TRUE
e12	2015	07	30	17	43	f	21	r	18.719765361	1	60	0.634649740008	1.09853765278	left	visual	left	visual	catch	NA	NA	FALSE	FALSE	FALSE	FALSE	TRUE	0	FALSE	FALSE	TRUE
e12	2015	07	30	17	43	f	21	r	18.719765361	1	61	1.46665544002	0.675827260521	left	visual	left	tactile	target	voice	715.770489129	FALSE	FALSE	FALSE	FALSE	FALSE	0	FALSE	FALSE	TRUE
e12	2015	07	30	17	43	f	21	r	18.719765361	1	62	0.677912629006	1.40431359478	left	tactile	left	tactile	target	voice	593.898653897	FALSE	FALSE	FALSE	FALSE	TRUE	0	FALSE	FALSE	TRUE
e12	2015	07	30	17	43	f	21	r	18.719765361	1	63	0.665880643006	1.39226747737	left	visual	right	visual	target	voice	476.689372299	FALSE	FALSE	FALSE	FALSE	FALSE	0	FALSE	FALSE	TRUE
e12	2015	07	30	17	43	f	21	r	18.719765361	1	64	0.448870216002	0.887517513804	left	visual	right	tactile	target	voice	382.693820866	FALSE	FALSE	FALSE	FALSE	FALSE	0	FALSE	FALSE	TRUE
e12	2015	07	30	17	43	f	21	r	18.719765361	1	65	0.512959874992	0.684368748328	right	tactile	left	visual	catch	NA	NA	FALSE	FALSE	FALSE	FALSE	TRUE	0	FALSE	TRUE	TRUE
e12	2015	07	30	17	43	f	21	r	18.719765361	1	66	1.38132217701	0.724503760805	right	tactile	left	visual	target	voice	462.415952847	FALSE	FALSE	FALSE	FALSE	TRUE	0	FALSE	TRUE	TRUE
e12	2015	07	30	17	43	f	21	r	18.719765361	1	67	0.606095704978	1.47944282641	right	visual	right	visual	target	voice	573.476888239	FALSE	FALSE	FALSE	FALSE	FALSE	0	FALSE	FALSE	TRUE
e12	2015	07	30	17	43	f	21	r	18.719765361	1	68	1.068276312	0.718884372191	right	visual	right	visual	target	voice	636.629549495	FALSE	FALSE	FALSE	FALSE	TRUE	0	FALSE	TRUE	TRUE
e12	2015	07	30	17	43	f	21	r	18.719765361	1	69	0.802914370986	0.986663517128	left	tactile	left	tactile	target	voice	NA	TRUE	FALSE	FALSE	FALSE	TRUE	0	FALSE	TRUE	FALSE
e12	2015	07	30	17	43	f	21	r	18.719765361	1	70	1.049719909	0.815784967965	right	visual	right	tactile	target	voice	544.87857371	FALSE	FALSE	FALSE	FALSE	TRUE	0	FALSE	TRUE	TRUE
e12	2015	07	30	17	43	f	21	r	18.719765361	1	71	0.824048052018	1.07256906204	right	visual	left	visual	target	voice	505.703621631	FALSE	FALSE	FALSE	FALSE	TRUE	0	FALSE	TRUE	TRUE
e12	2015	07	30	17	43	f	21	r	18.719765361	1	72	0.608590924006	0.890479882267	left	tactile	left	visual	target	voice	498.011988384	FALSE	FALSE	FALSE	FALSE	TRUE	0	FALSE	FALSE	TRUE
e12	2015	07	30	17	43	f	21	r	18.719765361	1	73	0.516622908995	1.43352347241	left	visual	right	visual	catch	NA	NA	FALSE	FALSE	FALSE	FALSE	TRUE	0	FALSE	FALSE	TRUE
e12	2015	07	30	17	43	f	21	r	18.719765361	1	74	0.867599388002	1.47242590224	left	tactile	left	tactile	target	voice	460.063669423	FALSE	FALSE	FALSE	FALSE	TRUE	0	FALSE	TRUE	TRUE
e12	2015	07	30	17	43	f	21	r	18.719765361	1	75	0.640749876009	0.928401761978	right	visual	left	tactile	target	NA	NA	FALSE	FALSE	FALSE	FALSE	TRUE	0	FALSE	FALSE	TRUE
e12	2015	07	30	17	43	f	21	r	18.719765361	1	76	0.863062949997	1.43386318863	left	visual	left	tactile	target	voice	521.342318039	FALSE	FALSE	FALSE	FALSE	FALSE	0	FALSE	FALSE	TRUE
e12	2015	07	30	17	43	f	21	r	18.719765361	1	77	0.689589186979	0.983150570456	right	tactile	left	visual	target	voice	446.703306225	FALSE	FALSE	FALSE	FALSE	FALSE	0	FALSE	FALSE	TRUE
e12	2015	07	30	17	43	f	21	r	18.719765361	1	78	0.485893309	1.34873873447	left	tactile	left	visual	target	voice	487.658169179	FALSE	FALSE	FALSE	FALSE	FALSE	0	FALSE	FALSE	TRUE
e12	2015	07	30	17	43	f	21	r	18.719765361	1	79	0.508729021996	0.869081516761	right	visual	left	visual	target	voice	511.160441907	FALSE	FALSE	FALSE	FALSE	TRUE	0	FALSE	FALSE	TRUE
e12	2015	07	30	17	43	f	21	r	18.719765361	1	80	0.489841205999	1.367277907	right	visual	right	tactile	target	voice	411.888554634	FALSE	FALSE	FALSE	FALSE	FALSE	0	FALSE	FALSE	TRUE
e12	2015	07	30	17	43	f	21	r	13.673988911	1	81	5.88276440898	0.794934903729	left	visual	right	visual	target	voice	465.986860916	FALSE	FALSE	FALSE	FALSE	FALSE	0	FALSE	FALSE	TRUE
e12	2015	07	30	17	43	f	21	r	13.673988911	1	82	0.625260711997	0.713560592602	left	tactile	right	tactile	target	voice	443.553812045	FALSE	FALSE	FALSE	FALSE	TRUE	0	FALSE	FALSE	TRUE
e12	2015	07	30	17	43	f	21	r	13.673988911	1	83	0.673354814004	1.37407933077	left	visual	right	tactile	target	voice	388.788124896	FALSE	FALSE	FALSE	FALSE	TRUE	0	FALSE	FALSE	TRUE
e12	2015	07	30	17	43	f	21	r	13.673988911	1	84	0.912512111012	1.32395002839	left	tactile	right	visual	target	voice	492.573632248	FALSE	FALSE	FALSE	FALSE	TRUE	0	FALSE	TRUE	TRUE
e12	2015	07	30	17	43	f	21	r	13.673988911	1	85	0.687248496019	1.23247711381	right	tactile	left	visual	target	voice	484.397133841	FALSE	FALSE	FALSE	FALSE	TRUE	0	FALSE	TRUE	TRUE
e12	2015	07	30	17	43	f	21	r	13.673988911	1	86	0.600649180007	1.39700865536	right	tactile	left	tactile	target	voice	389.375512314	FALSE	FALSE	FALSE	FALSE	TRUE	0	FALSE	TRUE	TRUE
e12	2015	07	30	17	43	f	21	r	13.673988911	1	87	0.736353710003	1.27287690367	left	tactile	right	visual	target	voice	772.127237986	FALSE	FALSE	FALSE	FALSE	TRUE	0	FALSE	TRUE	TRUE
e12	2015	07	30	17	43	f	21	r	13.673988911	1	88	0.452835465985	1.34475716616	right	tactile	right	tactile	target	voice	567.738310492	FALSE	FALSE	FALSE	FALSE	FALSE	0	FALSE	FALSE	TRUE
e12	2015	07	30	17	43	f	21	r	13.673988911	1	89	0.573746168986	1.21879618054	left	visual	right	tactile	target	voice	478.19373713	FALSE	FALSE	FALSE	FALSE	FALSE	0	FALSE	FALSE	TRUE
e12	2015	07	30	17	43	f	21	r	13.673988911	1	90	0.77414396801	1.08823094178	left	tactile	left	tactile	target	voice	487.775653892	FALSE	FALSE	FALSE	FALSE	TRUE	0	FALSE	TRUE	TRUE
e12	2015	07	30	17	43	f	21	r	13.673988911	1	91	0.768691408011	0.738945374548	right	tactile	left	visual	target	voice	534.359038109	FALSE	FALSE	FALSE	FALSE	TRUE	0	FALSE	TRUE	TRUE
e12	2015	07	30	17	43	f	21	r	13.673988911	1	92	0.685855000018	1.33617026316	left	tactile	right	visual	target	voice	598.937584524	FALSE	FALSE	FALSE	FALSE	TRUE	0	FALSE	TRUE	TRUE
e12	2015	07	30	17	43	f	21	r	13.673988911	1	93	0.563972300006	0.542794574493	left	visual	right	tactile	target	voice	650.557605171	FALSE	FALSE	FALSE	FALSE	TRUE	0	FALSE	FALSE	TRUE
e12	2015	07	30	17	43	f	21	r	13.673988911	1	94	0.477389856009	0.855083859464	right	visual	right	visual	target	voice	434.240426199	FALSE	FALSE	FALSE	FALSE	TRUE	0	FALSE	FALSE	TRUE
e12	2015	07	30	17	43	f	21	r	13.673988911	1	95	0.569684368005	1.17437630283	right	tactile	right	visual	target	voice	493.068090815	FALSE	FALSE	FALSE	FALSE	TRUE	0	FALSE	TRUE	TRUE
e12	2015	07	30	17	43	f	21	r	13.673988911	1	96	0.544584457995	1.27347526145	right	visual	left	tactile	catch	NA	NA	FALSE	FALSE	FALSE	FALSE	TRUE	0	FALSE	TRUE	TRUE
e12	2015	07	30	17	43	f	21	r	13.673988911	1	97	1.10871316402	1.06262730092	right	tactile	left	tactile	target	voice	468.955481774	FALSE	FALSE	FALSE	FALSE	TRUE	0	FALSE	TRUE	TRUE
e12	2015	07	30	17	43	f	21	r	13.673988911	1	98	0.755839907011	0.888557473902	right	visual	left	visual	target	voice	475.230852753	FALSE	FALSE	FALSE	FALSE	TRUE	0	FALSE	TRUE	TRUE
e12	2015	07	30	17	43	f	21	r	13.673988911	1	99	0.600565291999	0.696310804244	left	visual	left	visual	target	voice	550.271087413	FALSE	FALSE	FALSE	FALSE	TRUE	0	FALSE	TRUE	TRUE
e12	2015	07	30	17	43	f	21	r	13.673988911	1	100	0.711547137005	1.09003506428	left	visual	right	tactile	catch	NA	NA	FALSE	FALSE	FALSE	FALSE	FALSE	0	FALSE	FALSE	TRUE
e12	2015	07	30	17	43	f	21	r	13.673988911	1	101	0.88323311499	0.606512763886	left	visual	right	visual	target	voice	527.641850756	FALSE	FALSE	FALSE	FALSE	FALSE	0	FALSE	FALSE	TRUE
e12	2015	07	30	17	43	f	21	r	13.673988911	1	102	0.847800104995	1.15667141039	right	visual	right	visual	target	voice	889.027782279	FALSE	FALSE	FALSE	FALSE	FALSE	0	FALSE	FALSE	TRUE
e12	2015	07	30	17	43	f	21	r	13.673988911	1	103	0.549202827999	1.26942263839	right	tactile	left	tactile	target	voice	475.915274263	FALSE	FALSE	FALSE	FALSE	TRUE	0	FALSE	TRUE	TRUE
e12	2015	07	30	17	43	f	21	r	13.673988911	1	104	0.465414168983	0.833424544275	left	tactile	left	tactile	target	voice	658.57952839	FALSE	FALSE	FALSE	FALSE	TRUE	0	FALSE	FALSE	TRUE
e12	2015	07	30	17	43	f	21	r	13.673988911	1	105	0.47907755099	0.930195168349	left	visual	right	visual	target	voice	506.835738284	FALSE	FALSE	FALSE	FALSE	FALSE	0	FALSE	FALSE	TRUE
e12	2015	07	30	17	43	f	21	r	13.673988911	1	106	0.441769765021	0.616951516325	right	visual	left	visual	target	voice	902.23812731	FALSE	FALSE	FALSE	FALSE	TRUE	0	FALSE	FALSE	TRUE
e12	2015	07	30	17	43	f	21	r	13.673988911	1	107	2.87852938499	0.602697708735	left	tactile	right	tactile	target	voice	435.510741925	FALSE	FALSE	FALSE	FALSE	TRUE	0	FALSE	TRUE	TRUE
e12	2015	07	30	17	43	f	21	r	13.673988911	1	108	0.908494240983	0.975535976789	left	visual	left	tactile	target	voice	455.970500887	FALSE	FALSE	FALSE	FALSE	TRUE	0	FALSE	TRUE	TRUE
e12	2015	07	30	17	43	f	21	r	13.673988911	1	109	0.881313643011	1.49984004622	left	tactile	left	visual	target	voice	543.767584459	FALSE	FALSE	FALSE	FALSE	TRUE	0	FALSE	TRUE	TRUE
e12	2015	07	30	17	43	f	21	r	13.673988911	1	110	0.716303947993	1.11581082382	right	tactile	right	tactile	target	voice	512.145296845	FALSE	FALSE	FALSE	FALSE	FALSE	0	FALSE	FALSE	TRUE
e12	2015	07	30	17	43	f	21	r	13.673988911	1	111	0.632569540991	1.13255719955	left	tactile	right	tactile	target	voice	423.292648105	FALSE	FALSE	FALSE	FALSE	TRUE	0	FALSE	FALSE	TRUE
e12	2015	07	30	17	43	f	21	r	13.673988911	1	112	0.585583545995	0.94457148907	left	tactile	left	tactile	target	voice	480.440347601	FALSE	FALSE	FALSE	FALSE	TRUE	0	FALSE	TRUE	TRUE
e12	2015	07	30	17	43	f	21	r	13.673988911	1	113	0.516827915009	1.28765839869	right	visual	left	visual	target	voice	372.678936983	FALSE	FALSE	FALSE	FALSE	FALSE	0	FALSE	FALSE	TRUE
e12	2015	07	30	17	43	f	21	r	13.673988911	1	114	0.450524463988	0.705292480226	left	visual	left	tactile	catch	NA	NA	FALSE	FALSE	FALSE	FALSE	FALSE	0	FALSE	FALSE	TRUE
e12	2015	07	30	17	43	f	21	r	13.673988911	1	115	2.071916363	1.19146630717	left	visual	right	visual	target	voice	708.903275518	FALSE	FALSE	FALSE	FALSE	FALSE	0	FALSE	FALSE	TRUE
e12	2015	07	30	17	43	f	21	r	13.673988911	1	116	0.62566234899	0.882886828159	left	visual	left	tactile	target	voice	377.569521515	FALSE	FALSE	FALSE	FALSE	FALSE	0	FALSE	FALSE	TRUE
e12	2015	07	30	17	43	f	21	r	13.673988911	1	117	0.697695743991	1.03112006231	left	tactile	left	tactile	catch	NA	NA	FALSE	FALSE	FALSE	FALSE	TRUE	0	FALSE	FALSE	TRUE
e12	2015	07	30	17	43	f	21	r	13.673988911	1	118	1.42285884	0.516022720118	left	tactile	right	tactile	target	voice	362.41746755	FALSE	FALSE	FALSE	FALSE	TRUE	0	FALSE	FALSE	TRUE
e12	2015	07	30	17	43	f	21	r	13.673988911	1	119	0.647800594015	1.18671127922	right	tactile	right	tactile	target	voice	399.819411425	FALSE	FALSE	FALSE	FALSE	FALSE	0	FALSE	FALSE	TRUE
e12	2015	07	30	17	43	f	21	r	13.673988911	1	120	0.535879448988	0.818820440412	right	tactile	right	visual	target	voice	579.037622258	FALSE	FALSE	FALSE	FALSE	FALSE	0	FALSE	FALSE	TRUE
e12	2015	07	30	17	43	f	21	r	11.128999409	1	121	3.26980268201	0.702094671148	right	tactile	left	tactile	target	voice	372.853638517	FALSE	FALSE	FALSE	FALSE	FALSE	0	FALSE	FALSE	TRUE
e12	2015	07	30	17	43	f	21	r	11.128999409	1	122	0.748907064	0.693033484167	left	visual	right	tactile	target	voice	366.87856252	FALSE	FALSE	FALSE	FALSE	TRUE	0	FALSE	TRUE	TRUE
e12	2015	07	30	17	43	f	21	r	11.128999409	1	123	0.703343909001	0.880527193778	left	tactile	left	visual	catch	NA	NA	FALSE	FALSE	FALSE	FALSE	FALSE	0	FALSE	FALSE	TRUE
e12	2015	07	30	17	43	f	21	r	11.128999409	1	124	0.965827921988	0.83866473691	right	tactile	right	tactile	target	voice	508.892203739	FALSE	FALSE	FALSE	FALSE	TRUE	0	FALSE	TRUE	TRUE
e12	2015	07	30	17	43	f	21	r	11.128999409	1	125	0.630033424008	1.25630977834	right	visual	right	visual	target	voice	879.773857334	FALSE	FALSE	FALSE	FALSE	FALSE	0	FALSE	FALSE	TRUE
e12	2015	07	30	17	43	f	21	r	11.128999409	1	126	0.794140090991	1.38621186217	left	tactile	right	visual	target	voice	598.417284491	FALSE	FALSE	FALSE	FALSE	TRUE	0	FALSE	TRUE	TRUE
e12	2015	07	30	17	43	f	21	r	11.128999409	1	127	0.556554276001	0.892615405777	right	visual	right	visual	catch	NA	NA	FALSE	FALSE	FALSE	FALSE	FALSE	0	FALSE	FALSE	TRUE
e12	2015	07	30	17	43	f	21	r	11.128999409	1	128	1.23551161302	1.10484036514	right	tactile	right	visual	catch	NA	NA	FALSE	FALSE	FALSE	FALSE	TRUE	0	FALSE	TRUE	TRUE
e12	2015	07	30	17	43	f	21	r	11.128999409	1	129	1.28791740301	0.881392161837	left	visual	left	visual	target	voice	689.218241809	FALSE	FALSE	FALSE	FALSE	FALSE	0	FALSE	FALSE	TRUE
e12	2015	07	30	17	43	f	21	r	11.128999409	1	130	0.789786913025	0.917360634966	right	tactile	right	visual	target	voice	627.44011468	FALSE	FALSE	FALSE	FALSE	TRUE	0	FALSE	TRUE	TRUE
e12	2015	07	30	17	43	f	21	r	11.128999409	1	131	0.851037810004	0.814774484135	right	tactile	right	visual	target	voice	637.537787523	FALSE	FALSE	FALSE	FALSE	TRUE	0	FALSE	FALSE	TRUE
e12	2015	07	30	17	43	f	21	r	11.128999409	1	132	0.538495996007	1.38733152811	left	visual	right	tactile	target	voice	468.648347567	FALSE	FALSE	FALSE	FALSE	FALSE	0	FALSE	FALSE	TRUE
e12	2015	07	30	17	43	f	21	r	11.128999409	1	133	1.71097794201	0.929761000152	left	visual	left	visual	target	NA	NA	FALSE	FALSE	FALSE	FALSE	TRUE	0	FALSE	TRUE	TRUE
e12	2015	07	30	17	43	f	21	r	11.128999409	1	134	1.92128490401	1.28509117011	right	tactile	right	tactile	target	voice	591.328549548	FALSE	FALSE	FALSE	FALSE	TRUE	0	FALSE	TRUE	TRUE
e12	2015	07	30	17	43	f	21	r	11.128999409	1	135	0.50817018401	1.0730947765	left	tactile	left	visual	target	voice	602.008731134	FALSE	FALSE	FALSE	FALSE	TRUE	0	FALSE	FALSE	TRUE
e12	2015	07	30	17	43	f	21	r	11.128999409	1	136	0.577816039993	0.758221976397	right	tactile	left	tactile	target	voice	547.124639241	FALSE	FALSE	FALSE	FALSE	TRUE	0	FALSE	TRUE	TRUE
e12	2015	07	30	17	43	f	21	r	11.128999409	1	137	0.532770015998	0.514051269067	right	visual	right	visual	target	voice	602.993261593	FALSE	FALSE	FALSE	FALSE	TRUE	0	FALSE	TRUE	TRUE
e12	2015	07	30	17	43	f	21	r	11.128999409	1	138	0.419543172	0.898268672928	left	visual	left	visual	target	voice	878.308271727	FALSE	FALSE	FALSE	FALSE	FALSE	0	FALSE	FALSE	TRUE
e12	2015	07	30	17	43	f	21	r	11.128999409	1	139	0.459896494984	0.750713572825	right	tactile	right	tactile	target	voice	564.223167836	FALSE	FALSE	FALSE	FALSE	TRUE	0	FALSE	TRUE	TRUE
e12	2015	07	30	17	43	f	21	r	11.128999409	1	140	0.403771465993	1.21148707053	right	visual	left	tactile	target	voice	332.350662124	FALSE	FALSE	FALSE	FALSE	TRUE	0	FALSE	TRUE	TRUE
e12	2015	07	30	17	43	f	21	r	11.128999409	1	141	0.847548379999	1.18869562041	left	tactile	right	tactile	target	voice	430.819477246	FALSE	FALSE	FALSE	FALSE	TRUE	0	FALSE	TRUE	TRUE
e12	2015	07	30	17	43	f	21	r	11.128999409	1	142	1.28436147701	1.14310975184	right	visual	right	tactile	target	voice	413.449404849	FALSE	FALSE	FALSE	FALSE	TRUE	0	FALSE	FALSE	TRUE
e12	2015	07	30	17	43	f	21	r	11.128999409	1	143	0.557541276998	1.11112264505	right	tactile	left	tactile	target	voice	473.620218603	FALSE	FALSE	FALSE	FALSE	FALSE	0	FALSE	FALSE	TRUE
e12	2015	07	30	17	43	f	21	r	11.128999409	1	144	0.628303656995	1.22328918664	left	visual	right	tactile	target	voice	523.868678021	FALSE	FALSE	FALSE	FALSE	TRUE	0	FALSE	TRUE	TRUE
e12	2015	07	30	17	43	f	21	r	11.128999409	1	145	0.503990575002	0.653770670029	left	visual	right	tactile	target	voice	394.798961643	FALSE	FALSE	FALSE	FALSE	FALSE	0	FALSE	FALSE	TRUE
e12	2015	07	30	17	43	f	21	r	11.128999409	1	146	0.560423777992	1.10606408789	right	visual	right	tactile	target	voice	555.00676579	FALSE	FALSE	FALSE	FALSE	TRUE	0	FALSE	FALSE	TRUE
e12	2015	07	30	17	43	f	21	r	11.128999409	1	147	2.34572347201	1.21063427128	left	visual	right	tactile	target	voice	379.412681359	FALSE	FALSE	FALSE	FALSE	TRUE	0	FALSE	TRUE	TRUE
e12	2015	07	30	17	43	f	21	r	11.128999409	1	148	0.78331340701	1.09061251705	left	visual	left	tactile	target	voice	460.061635618	FALSE	FALSE	FALSE	FALSE	TRUE	0	FALSE	TRUE	TRUE
e12	2015	07	30	17	43	f	21	r	11.128999409	1	149	0.522965198994	1.17838264483	right	tactile	right	visual	target	voice	505.90327481	FALSE	FALSE	FALSE	FALSE	TRUE	0	FALSE	TRUE	TRUE
e12	2015	07	30	17	43	f	21	r	11.128999409	1	150	0.546049499011	0.559957346059	right	visual	right	tactile	target	voice	542.667523609	FALSE	FALSE	FALSE	FALSE	TRUE	0	FALSE	TRUE	TRUE
e12	2015	07	30	17	43	f	21	r	11.128999409	1	151	5.859265312	0.523284060433	right	visual	left	tactile	target	voice	443.683772231	FALSE	FALSE	FALSE	FALSE	FALSE	0	FALSE	FALSE	TRUE
e12	2015	07	30	17	43	f	21	r	11.128999409	1	152	0.923983874003	0.734015165674	right	tactile	left	visual	target	voice	581.852520991	FALSE	FALSE	FALSE	FALSE	FALSE	0	FALSE	FALSE	TRUE
e12	2015	07	30	17	43	f	21	r	11.128999409	1	153	1.258220383	0.967165709612	left	visual	right	visual	target	voice	571.117059037	FALSE	FALSE	FALSE	FALSE	TRUE	0	FALSE	FALSE	TRUE
e12	2015	07	30	17	43	f	21	r	11.128999409	1	154	0.653499192995	0.532053475062	left	tactile	left	visual	target	voice	770.280404598	FALSE	FALSE	FALSE	FALSE	FALSE	0	FALSE	FALSE	TRUE
e12	2015	07	30	17	43	f	21	r	11.128999409	1	155	0.684422513994	0.666616388381	left	visual	left	visual	target	voice	484.495831275	FALSE	FALSE	FALSE	FALSE	TRUE	0	FALSE	TRUE	TRUE
e12	2015	07	30	17	43	f	21	r	11.128999409	1	156	0.81618851301	0.670971399879	left	visual	left	tactile	target	voice	462.193867803	FALSE	FALSE	FALSE	FALSE	FALSE	0	FALSE	FALSE	TRUE
e12	2015	07	30	17	43	f	21	r	11.128999409	1	157	0.841253913008	1.1608456572	left	tactile	left	tactile	target	voice	524.039492477	FALSE	FALSE	FALSE	FALSE	TRUE	0	FALSE	FALSE	TRUE
e12	2015	07	30	17	43	f	21	r	11.128999409	1	158	0.662463362998	0.936635192636	left	tactile	left	visual	target	voice	492.919574026	FALSE	FALSE	FALSE	FALSE	FALSE	0	FALSE	FALSE	TRUE
e12	2015	07	30	17	43	f	21	r	11.128999409	1	159	0.850420383009	0.644188338144	right	tactile	right	tactile	target	voice	506.781198521	FALSE	FALSE	FALSE	FALSE	TRUE	0	FALSE	TRUE	TRUE
e12	2015	07	30	17	43	f	21	r	11.128999409	1	160	0.694919315982	1.12025242209	left	visual	left	visual	target	voice	565.134844568	FALSE	FALSE	FALSE	FALSE	TRUE	0	FALSE	TRUE	TRUE
e12	2015	07	30	17	43	f	21	r	20.581377203	2	1	3.91892822698	1.20917669827	left	tactile	left	tactile	target	voice	409.511654405	FALSE	FALSE	FALSE	FALSE	FALSE	0	FALSE	FALSE	TRUE
e12	2015	07	30	17	43	f	21	r	20.581377203	2	2	0.687878351018	0.6684985498	right	tactile	right	visual	target	voice	564.857085847	FALSE	FALSE	FALSE	FALSE	TRUE	0	FALSE	FALSE	TRUE
e12	2015	07	30	17	43	f	21	r	20.581377203	2	3	0.669427893998	1.31753560316	left	tactile	left	tactile	target	voice	464.588587522	FALSE	FALSE	FALSE	FALSE	FALSE	0	FALSE	FALSE	TRUE
e12	2015	07	30	17	43	f	21	r	20.581377203	2	4	0.735020124004	1.35585642185	right	tactile	left	visual	target	voice	523.683820822	FALSE	FALSE	FALSE	FALSE	TRUE	0	FALSE	TRUE	TRUE
e12	2015	07	30	17	43	f	21	r	20.581377203	2	5	0.590165756003	0.937636398585	right	visual	right	tactile	target	voice	479.477283079	FALSE	FALSE	FALSE	FALSE	TRUE	0	FALSE	TRUE	TRUE
e12	2015	07	30	17	43	f	21	r	20.581377203	2	6	0.791886455991	1.08117446741	right	tactile	left	tactile	target	voice	444.527758285	FALSE	FALSE	FALSE	FALSE	TRUE	0	FALSE	TRUE	TRUE
e12	2015	07	30	17	43	f	21	r	20.581377203	2	7	0.833916851989	0.978844510293	right	visual	right	visual	target	voice	730.182381376	FALSE	FALSE	FALSE	FALSE	FALSE	0	FALSE	FALSE	TRUE
e12	2015	07	30	17	43	f	21	r	20.581377203	2	8	0.632212148019	0.700470231098	right	tactile	right	visual	target	voice	471.325741557	FALSE	FALSE	FALSE	FALSE	FALSE	0	FALSE	FALSE	TRUE
e12	2015	07	30	17	43	f	21	r	20.581377203	2	9	0.599046385003	0.762891623078	right	visual	left	visual	target	voice	316.031820577	FALSE	FALSE	FALSE	FALSE	FALSE	0	FALSE	FALSE	TRUE
e12	2015	07	30	17	43	f	21	r	20.581377203	2	10	1.10064813201	0.637300257655	left	tactile	right	visual	target	voice	612.899468018	FALSE	FALSE	FALSE	FALSE	TRUE	0	FALSE	TRUE	TRUE
e12	2015	07	30	17	43	f	21	r	20.581377203	2	11	0.616214013018	0.677597934566	right	visual	left	visual	catch	NA	NA	FALSE	FALSE	FALSE	FALSE	TRUE	0	FALSE	TRUE	TRUE
e12	2015	07	30	17	43	f	21	r	20.581377203	2	12	1.49121870301	0.764922740645	left	tactile	right	visual	target	NA	NA	FALSE	FALSE	FALSE	FALSE	FALSE	0	FALSE	FALSE	TRUE
e12	2015	07	30	17	43	f	21	r	20.581377203	2	13	1.237477013	0.853532068695	right	tactile	left	tactile	target	voice	546.819593961	FALSE	FALSE	FALSE	FALSE	FALSE	0	FALSE	FALSE	TRUE
e12	2015	07	30	17	43	f	21	r	20.581377203	2	14	0.696538406017	1.12077438539	left	visual	right	tactile	target	voice	484.586239269	FALSE	FALSE	FALSE	FALSE	FALSE	0	FALSE	FALSE	TRUE
e12	2015	07	30	17	43	f	21	r	20.581377203	2	15	2.00191925399	1.08257884361	right	visual	left	visual	target	voice	607.888080034	FALSE	FALSE	FALSE	FALSE	FALSE	0	FALSE	FALSE	TRUE
e12	2015	07	30	17	43	f	21	r	20.581377203	2	16	0.617291408009	1.22371056182	right	tactile	right	tactile	catch	NA	NA	FALSE	FALSE	FALSE	FALSE	FALSE	0	FALSE	FALSE	TRUE
e12	2015	07	30	17	43	f	21	r	20.581377203	2	17	1.30098480801	1.1877332994	left	visual	right	visual	catch	NA	NA	FALSE	FALSE	FALSE	FALSE	TRUE	0	FALSE	TRUE	TRUE
e12	2015	07	30	17	43	f	21	r	20.581377203	2	18	1.07830905702	0.613276536239	right	visual	right	tactile	target	voice	500.300029409	FALSE	FALSE	FALSE	FALSE	TRUE	0	FALSE	FALSE	TRUE
e12	2015	07	30	17	43	f	21	r	20.581377203	2	19	0.813015960011	0.926576901946	right	tactile	right	tactile	target	voice	534.097671713	FALSE	FALSE	FALSE	FALSE	TRUE	0	FALSE	TRUE	TRUE
e12	2015	07	30	17	43	f	21	r	20.581377203	2	20	0.983374300995	1.24607842088	left	tactile	left	visual	target	voice	560.940290772	FALSE	FALSE	FALSE	FALSE	TRUE	0	FALSE	FALSE	TRUE
e12	2015	07	30	17	43	f	21	r	20.581377203	2	21	0.739438479999	0.769606968499	right	tactile	left	visual	target	voice	552.842850157	FALSE	FALSE	FALSE	FALSE	FALSE	0	FALSE	FALSE	TRUE
e12	2015	07	30	17	43	f	21	r	20.581377203	2	22	0.896570268	0.74548827471	left	visual	right	tactile	target	voice	595.961752959	FALSE	FALSE	FALSE	FALSE	FALSE	0	FALSE	FALSE	TRUE
e12	2015	07	30	17	43	f	21	r	20.581377203	2	23	0.908903325006	0.88595339324	right	visual	left	tactile	target	voice	914.536066441	FALSE	FALSE	FALSE	FALSE	FALSE	0	FALSE	FALSE	TRUE
e12	2015	07	30	17	43	f	21	r	20.581377203	2	24	0.692927710974	0.852263372482	left	visual	right	visual	target	voice	525.681044208	FALSE	FALSE	FALSE	FALSE	TRUE	0	FALSE	TRUE	TRUE
e12	2015	07	30	17	43	f	21	r	20.581377203	2	25	0.750784872012	1.27899577041	left	visual	left	tactile	target	voice	611.967752251	FALSE	FALSE	FALSE	FALSE	TRUE	0	FALSE	TRUE	TRUE
e12	2015	07	30	17	43	f	21	r	20.581377203	2	26	0.665869815013	0.741636808331	left	tactile	right	visual	target	voice	503.395056352	FALSE	FALSE	FALSE	FALSE	TRUE	0	FALSE	FALSE	TRUE
e12	2015	07	30	17	43	f	21	r	20.581377203	2	27	0.792107565008	0.949376598735	right	visual	right	visual	target	voice	638.944384933	FALSE	FALSE	FALSE	FALSE	TRUE	0	FALSE	FALSE	TRUE
e12	2015	07	30	17	43	f	21	r	20.581377203	2	28	0.580762854021	0.743424575176	right	visual	left	tactile	target	voice	566.582854517	FALSE	FALSE	FALSE	FALSE	TRUE	0	FALSE	TRUE	TRUE
e12	2015	07	30	17	43	f	21	r	20.581377203	2	29	0.644868251024	0.641775114301	left	visual	left	tactile	target	voice	448.113566381	FALSE	FALSE	FALSE	FALSE	TRUE	0	FALSE	TRUE	TRUE
e12	2015	07	30	17	43	f	21	r	20.581377203	2	30	0.821675276995	1.42829031975	left	visual	left	visual	target	voice	540.587218915	FALSE	FALSE	FALSE	FALSE	FALSE	0	FALSE	FALSE	TRUE
e12	2015	07	30	17	43	f	21	r	20.581377203	2	31	0.71596785498	0.757602399336	left	visual	right	tactile	target	voice	555.240703339	FALSE	FALSE	FALSE	FALSE	TRUE	0	FALSE	TRUE	TRUE
e12	2015	07	30	17	43	f	21	r	20.581377203	2	32	0.641132068005	1.35214847674	left	visual	right	visual	target	voice	535.871186934	FALSE	FALSE	FALSE	FALSE	FALSE	0	FALSE	FALSE	TRUE
e12	2015	07	30	17	43	f	21	r	20.581377203	2	33	0.528944464022	0.547422270064	left	tactile	right	tactile	target	voice	454.272959585	FALSE	FALSE	FALSE	FALSE	TRUE	0	FALSE	FALSE	TRUE
e12	2015	07	30	17	43	f	21	r	20.581377203	2	34	0.538968532986	0.522871995212	right	tactile	right	visual	catch	NA	NA	FALSE	FALSE	FALSE	FALSE	TRUE	0	FALSE	FALSE	TRUE
e12	2015	07	30	17	43	f	21	r	20.581377203	2	35	1.25539513599	1.29987393131	left	visual	left	visual	target	voice	541.454380349	FALSE	FALSE	FALSE	FALSE	TRUE	0	FALSE	TRUE	TRUE
e12	2015	07	30	17	43	f	21	r	20.581377203	2	36	0.787336497015	0.591796492366	left	tactile	left	visual	target	voice	709.797210293	FALSE	FALSE	FALSE	FALSE	FALSE	0	FALSE	FALSE	TRUE
e12	2015	07	30	17	43	f	21	r	20.581377203	2	37	0.547140726005	0.83836594975	left	tactile	right	visual	target	NA	NA	FALSE	FALSE	FALSE	FALSE	TRUE	0	FALSE	FALSE	TRUE
e12	2015	07	30	17	43	f	21	r	20.581377203	2	38	1.55829320702	0.953368740757	right	visual	left	visual	target	voice	450.515897886	FALSE	FALSE	FALSE	FALSE	TRUE	0	FALSE	TRUE	TRUE
e12	2015	07	30	17	43	f	21	r	20.581377203	2	39	0.875089309004	1.17402699611	right	visual	left	visual	target	voice	518.225763575	FALSE	FALSE	FALSE	FALSE	FALSE	0	FALSE	FALSE	TRUE
e12	2015	07	30	17	43	f	21	r	20.581377203	2	40	0.878240840975	1.18165044409	right	tactile	left	tactile	target	voice	751.237665594	FALSE	FALSE	FALSE	FALSE	FALSE	0	FALSE	FALSE	TRUE
e12	2015	07	30	17	43	f	21	r	8.52937887501	2	41	5.15011441801	1.14441293332	left	visual	left	tactile	target	voice	509.51507935	FALSE	FALSE	FALSE	FALSE	TRUE	0	FALSE	FALSE	TRUE
e12	2015	07	30	17	43	f	21	r	8.52937887501	2	42	0.605331303988	1.28680986485	left	tactile	right	visual	target	NA	NA	FALSE	FALSE	FALSE	FALSE	TRUE	0	FALSE	FALSE	TRUE
e12	2015	07	30	17	43	f	21	r	8.52937887501	2	43	0.709886024997	0.705534266687	left	tactile	left	tactile	target	NA	NA	FALSE	FALSE	FALSE	FALSE	FALSE	0	FALSE	FALSE	TRUE
e12	2015	07	30	17	43	f	21	r	8.52937887501	2	44	1.57033438	1.48666091675	right	visual	left	tactile	target	voice	472.036642925	FALSE	FALSE	FALSE	FALSE	TRUE	0	FALSE	FALSE	TRUE
e12	2015	07	30	17	43	f	21	r	8.52937887501	2	45	0.74368735298	0.746134444141	right	tactile	left	tactile	catch	NA	NA	FALSE	FALSE	FALSE	FALSE	FALSE	0	FALSE	FALSE	TRUE
e12	2015	07	30	17	43	f	21	r	8.52937887501	2	46	1.63125299301	0.80641889347	left	visual	right	visual	target	voice	374.086446187	FALSE	FALSE	FALSE	FALSE	FALSE	0	FALSE	FALSE	TRUE
e12	2015	07	30	17	43	f	21	r	8.52937887501	2	47	0.675914804975	1.34282234988	right	tactile	left	visual	catch	NA	NA	FALSE	FALSE	FALSE	FALSE	FALSE	0	FALSE	FALSE	TRUE
e12	2015	07	30	17	43	f	21	r	8.52937887501	2	48	1.142958146	1.00939515478	right	visual	right	visual	target	voice	505.504502886	FALSE	FALSE	FALSE	FALSE	TRUE	0	FALSE	FALSE	TRUE
e12	2015	07	30	17	43	f	21	r	8.52937887501	2	49	0.613751452998	0.500752519499	right	visual	left	tactile	target	voice	451.419048186	FALSE	FALSE	FALSE	FALSE	TRUE	0	FALSE	TRUE	TRUE
e12	2015	07	30	17	43	f	21	r	8.52937887501	2	50	0.711129244999	1.04657833565	right	visual	left	tactile	target	voice	533.750970004	FALSE	FALSE	FALSE	FALSE	FALSE	0	FALSE	FALSE	TRUE
e12	2015	07	30	17	43	f	21	r	8.52937887501	2	51	0.724028694996	0.723755827287	right	tactile	right	tactile	target	voice	544.439081365	FALSE	FALSE	FALSE	FALSE	TRUE	0	FALSE	FALSE	TRUE
e12	2015	07	30	17	43	f	21	r	8.52937887501	2	52	0.818875221012	1.41494945666	left	visual	right	tactile	target	voice	357.032789994	FALSE	FALSE	FALSE	FALSE	TRUE	0	FALSE	TRUE	TRUE
e12	2015	07	30	17	43	f	21	r	8.52937887501	2	53	0.853044232004	1.38252274993	left	tactile	right	visual	target	voice	528.594347736	FALSE	FALSE	FALSE	FALSE	TRUE	0	FALSE	FALSE	TRUE
e12	2015	07	30	17	43	f	21	r	8.52937887501	2	54	0.480340872979	0.689529001498	right	visual	right	visual	target	voice	516.719642153	FALSE	FALSE	FALSE	FALSE	FALSE	0	FALSE	FALSE	TRUE
e12	2015	07	30	17	43	f	21	r	8.52937887501	2	55	0.520850019006	1.02060538017	left	visual	right	visual	target	voice	631.605248462	FALSE	FALSE	FALSE	FALSE	FALSE	0	FALSE	FALSE	TRUE
e12	2015	07	30	17	43	f	21	r	8.52937887501	2	56	0.514538657997	1.18824117053	left	tactile	right	tactile	target	voice	349.263915152	FALSE	FALSE	FALSE	FALSE	TRUE	0	FALSE	TRUE	TRUE
e12	2015	07	30	17	43	f	21	r	8.52937887501	2	57	0.535625472025	1.16873331989	right	tactile	left	visual	target	voice	388.15746078	FALSE	FALSE	FALSE	FALSE	FALSE	0	FALSE	FALSE	TRUE
e12	2015	07	30	17	43	f	21	r	8.52937887501	2	58	0.596121590002	0.951086560319	right	tactile	right	tactile	target	voice	539.708856348	FALSE	FALSE	FALSE	FALSE	TRUE	0	FALSE	FALSE	TRUE
e12	2015	07	30	17	43	f	21	r	8.52937887501	2	59	0.528182304988	1.47598444618	left	visual	left	visual	target	voice	517.672730493	FALSE	FALSE	FALSE	FALSE	FALSE	0	FALSE	FALSE	TRUE
e12	2015	07	30	17	43	f	21	r	8.52937887501	2	60	0.512256151007	0.617247011556	left	tactile	left	tactile	target	NA	NA	FALSE	FALSE	FALSE	FALSE	TRUE	0	FALSE	TRUE	TRUE
e12	2015	07	30	17	43	f	21	r	8.52937887501	2	61	1.409151075	0.859644662034	right	tactile	right	visual	target	voice	NA	TRUE	FALSE	FALSE	FALSE	FALSE	0	FALSE	FALSE	FALSE
e12	2015	07	30	17	43	f	21	r	8.52937887501	2	62	1.40455440202	1.02443039	left	tactile	right	visual	target	voice	458.727285673	FALSE	FALSE	FALSE	FALSE	TRUE	0	FALSE	TRUE	TRUE
e12	2015	07	30	17	43	f	21	r	8.52937887501	2	63	0.578012265003	1.42429124842	right	tactile	right	visual	target	voice	544.937732251	FALSE	FALSE	FALSE	FALSE	TRUE	0	FALSE	FALSE	TRUE
e12	2015	07	30	17	43	f	21	r	8.52937887501	2	64	0.965230941976	0.755079622571	right	tactile	left	visual	target	voice	622.792909096	FALSE	FALSE	FALSE	FALSE	TRUE	0	FALSE	TRUE	TRUE
e12	2015	07	30	17	43	f	21	r	8.52937887501	2	65	0.815768512985	0.585522750164	left	tactile	left	visual	target	voice	605.808053486	FALSE	FALSE	FALSE	FALSE	FALSE	0	FALSE	FALSE	TRUE
e12	2015	07	30	17	43	f	21	r	8.52937887501	2	66	0.525167265994	0.576070313785	right	tactile	right	visual	target	NA	NA	FALSE	FALSE	FALSE	FALSE	FALSE	0	FALSE	FALSE	TRUE
e12	2015	07	30	17	43	f	21	r	8.52937887501	2	67	0.82778107698	1.00789295904	left	visual	left	visual	target	voice	515.917115583	FALSE	FALSE	FALSE	FALSE	TRUE	0	FALSE	FALSE	TRUE
e12	2015	07	30	17	43	f	21	r	8.52937887501	2	68	0.570978809992	1.27287718156	right	visual	right	tactile	target	voice	766.962322086	FALSE	FALSE	FALSE	FALSE	FALSE	0	FALSE	FALSE	TRUE
e12	2015	07	30	17	43	f	21	r	8.52937887501	2	69	0.489461885998	1.34073990301	left	tactile	left	visual	target	voice	560.62809765	FALSE	FALSE	FALSE	FALSE	TRUE	0	FALSE	FALSE	TRUE
e12	2015	07	30	17	43	f	21	r	8.52937887501	2	70	0.499369978003	0.674495807371	left	tactile	right	visual	catch	NA	NA	FALSE	FALSE	FALSE	FALSE	TRUE	0	FALSE	FALSE	TRUE
e12	2015	07	30	17	43	f	21	r	8.52937887501	2	71	2.23176977801	0.93724423406	right	tactile	left	visual	target	voice	369.402740616	FALSE	FALSE	FALSE	FALSE	FALSE	0	FALSE	FALSE	TRUE
e12	2015	07	30	17	43	f	21	r	8.52937887501	2	72	4.37839378999	1.46198548537	left	visual	right	visual	target	voice	556.195615325	FALSE	FALSE	FALSE	FALSE	TRUE	0	FALSE	FALSE	TRUE
e12	2015	07	30	17	43	f	21	r	8.52937887501	2	73	5.66953034399	1.20439042241	left	tactile	right	tactile	catch	NA	NA	FALSE	FALSE	FALSE	FALSE	FALSE	0	FALSE	FALSE	TRUE
e12	2015	07	30	17	43	f	21	r	8.52937887501	2	74	5.53639474101	1.33639971084	left	visual	right	visual	target	voice	505.482478824	FALSE	FALSE	FALSE	FALSE	TRUE	0	FALSE	FALSE	TRUE
e12	2015	07	30	17	43	f	21	r	8.52937887501	2	75	1.38136375198	1.35831661787	left	visual	left	tactile	target	voice	367.128432787	FALSE	FALSE	FALSE	FALSE	FALSE	0	FALSE	FALSE	TRUE
e12	2015	07	30	17	43	f	21	r	8.52937887501	2	76	4.63327487599	0.584857389925	right	tactile	left	visual	target	voice	743.531120766	FALSE	FALSE	FALSE	FALSE	FALSE	0	FALSE	FALSE	TRUE
e12	2015	07	30	17	43	f	21	r	8.52937887501	2	77	1.179704001	1.11059096757	right	tactile	left	tactile	target	voice	436.814919056	FALSE	FALSE	FALSE	FALSE	TRUE	0	FALSE	TRUE	TRUE
e12	2015	07	30	17	43	f	21	r	8.52937887501	2	78	0.677397952997	0.892487051944	right	tactile	right	tactile	target	voice	650.219195697	FALSE	FALSE	FALSE	FALSE	TRUE	0	FALSE	TRUE	TRUE
e12	2015	07	30	17	43	f	21	r	8.52937887501	2	79	0.667778164992	1.26223658778	right	visual	right	tactile	target	voice	592.485833884	FALSE	FALSE	FALSE	FALSE	FALSE	0	FALSE	FALSE	TRUE
e12	2015	07	30	17	43	f	21	r	8.52937887501	2	80	0.573784870998	1.22900066843	right	tactile	right	visual	target	voice	417.539862217	FALSE	FALSE	FALSE	FALSE	TRUE	0	FALSE	TRUE	TRUE
e12	2015	07	30	17	43	f	21	r	9.33522262503	2	81	4.32307057601	1.04804091095	left	visual	left	visual	target	voice	NA	TRUE	FALSE	FALSE	FALSE	FALSE	0	FALSE	FALSE	FALSE
e12	2015	07	30	17	43	f	21	r	9.33522262503	2	82	0.816745240998	1.40378982296	left	visual	right	tactile	target	voice	538.646681671	FALSE	FALSE	FALSE	FALSE	TRUE	0	FALSE	FALSE	TRUE
e12	2015	07	30	17	43	f	21	r	9.33522262503	2	83	0.953298960987	1.39193897281	left	tactile	right	tactile	target	voice	382.99701584	FALSE	FALSE	FALSE	FALSE	TRUE	0	FALSE	FALSE	TRUE
e12	2015	07	30	17	43	f	21	r	9.33522262503	2	84	0.916157519998	0.610555907305	left	visual	left	tactile	target	voice	604.998840368	FALSE	FALSE	FALSE	FALSE	TRUE	0	FALSE	TRUE	TRUE
e12	2015	07	30	17	43	f	21	r	9.33522262503	2	85	0.466036409984	0.655046756148	right	visual	left	tactile	target	voice	405.417098518	FALSE	FALSE	FALSE	FALSE	TRUE	0	FALSE	TRUE	TRUE
e12	2015	07	30	17	43	f	21	r	9.33522262503	2	86	0.784398718009	1.14600257473	left	visual	left	tactile	target	voice	524.358641909	FALSE	FALSE	FALSE	FALSE	FALSE	0	FALSE	FALSE	TRUE
e12	2015	07	30	17	43	f	21	r	9.33522262503	2	87	0.945301130996	1.15887737612	right	visual	left	tactile	target	voice	421.452026523	FALSE	FALSE	FALSE	FALSE	TRUE	0	FALSE	TRUE	TRUE
e12	2015	07	30	17	43	f	21	r	9.33522262503	2	88	0.673887823999	1.3624315415	left	visual	right	tactile	catch	NA	NA	FALSE	FALSE	FALSE	FALSE	TRUE	0	FALSE	FALSE	TRUE
e12	2015	07	30	17	43	f	21	r	9.33522262503	2	89	1.337918126	1.38894835493	left	tactile	right	visual	target	voice	478.265466751	FALSE	FALSE	FALSE	FALSE	TRUE	0	FALSE	TRUE	TRUE
e12	2015	07	30	17	43	f	21	r	9.33522262503	2	90	0.689308016008	0.518777890904	left	tactile	left	tactile	catch	NA	NA	FALSE	FALSE	FALSE	FALSE	TRUE	0	FALSE	FALSE	TRUE
e12	2015	07	30	17	43	f	21	r	9.33522262503	2	91	0.934138382989	0.981878227237	right	visual	right	tactile	target	voice	471.128958423	FALSE	FALSE	FALSE	FALSE	TRUE	0	FALSE	FALSE	TRUE
e12	2015	07	30	17	43	f	21	r	9.33522262503	2	92	0.640182961011	1.24360703332	right	visual	left	visual	target	voice	585.555874335	FALSE	FALSE	FALSE	FALSE	TRUE	0	FALSE	TRUE	TRUE
e12	2015	07	30	17	43	f	21	r	9.33522262503	2	93	0.517835427017	1.21186468995	right	visual	right	tactile	target	NA	NA	FALSE	FALSE	FALSE	FALSE	FALSE	0	FALSE	FALSE	TRUE
e12	2015	07	30	17	43	f	21	r	9.33522262503	2	94	1.07317726	1.09114628914	left	visual	right	visual	target	voice	485.743094527	FALSE	FALSE	FALSE	FALSE	TRUE	0	FALSE	TRUE	TRUE
e12	2015	07	30	17	43	f	21	r	9.33522262503	2	95	0.871920709993	0.857610413719	right	tactile	left	visual	target	NA	NA	FALSE	FALSE	FALSE	FALSE	FALSE	0	FALSE	FALSE	TRUE
e12	2015	07	30	17	43	f	21	r	9.33522262503	2	96	0.588555356982	0.53391612754	right	visual	right	tactile	target	voice	617.247038113	FALSE	FALSE	FALSE	FALSE	FALSE	0	FALSE	FALSE	TRUE
e12	2015	07	30	17	43	f	21	r	9.33522262503	2	97	0.573884776997	1.28840196205	left	tactile	right	tactile	target	voice	425.313099608	FALSE	FALSE	FALSE	FALSE	FALSE	0	FALSE	FALSE	TRUE
e12	2015	07	30	17	43	f	21	r	9.33522262503	2	98	0.536130992987	1.37967021054	right	visual	left	visual	target	voice	437.931466149	FALSE	FALSE	FALSE	FALSE	FALSE	0	FALSE	FALSE	TRUE
e12	2015	07	30	17	43	f	21	r	9.33522262503	2	99	0.480806471023	1.41562478041	right	tactile	right	visual	target	voice	469.094733242	FALSE	FALSE	FALSE	FALSE	TRUE	0	FALSE	TRUE	TRUE
e12	2015	07	30	17	43	f	21	r	9.33522262503	2	100	0.624530520989	0.601580433749	left	tactile	right	tactile	target	NA	NA	FALSE	FALSE	FALSE	FALSE	TRUE	0	FALSE	TRUE	TRUE
e12	2015	07	30	17	43	f	21	r	9.33522262503	2	101	1.54680452199	1.35336894497	right	visual	left	visual	target	voice	436.317711719	FALSE	FALSE	FALSE	FALSE	FALSE	0	FALSE	FALSE	TRUE
e12	2015	07	30	17	43	f	21	r	9.33522262503	2	102	0.607848187996	0.642723485045	left	visual	right	visual	target	voice	493.670866621	FALSE	FALSE	FALSE	FALSE	FALSE	0	FALSE	FALSE	TRUE
e12	2015	07	30	17	43	f	21	r	9.33522262503	2	103	0.902052257006	1.24911762371	right	tactile	right	tactile	target	voice	555.506052944	FALSE	FALSE	FALSE	FALSE	FALSE	0	FALSE	FALSE	TRUE
e12	2015	07	30	17	43	f	21	r	9.33522262503	2	104	0.751759206993	1.13308545896	left	visual	left	visual	catch	NA	NA	FALSE	FALSE	FALSE	FALSE	FALSE	0	FALSE	FALSE	TRUE
e12	2015	07	30	17	43	f	21	r	9.33522262503	2	105	1.365862443	1.49605966808	right	visual	left	visual	target	voice	697.106343578	FALSE	FALSE	FALSE	FALSE	TRUE	0	FALSE	FALSE	TRUE
e12	2015	07	30	17	43	f	21	r	9.33522262503	2	106	0.68828631402	1.2579839943	left	tactile	left	visual	catch	NA	NA	FALSE	FALSE	FALSE	FALSE	FALSE	0	FALSE	FALSE	TRUE
e12	2015	07	30	17	43	f	21	r	9.33522262503	2	107	1.38584157702	0.825669533774	left	tactile	left	tactile	target	voice	815.437785874	FALSE	FALSE	FALSE	FALSE	FALSE	0	FALSE	FALSE	TRUE
e12	2015	07	30	17	43	f	21	r	9.33522262503	2	108	0.500530816003	1.13866874783	right	visual	right	visual	target	voice	475.829711824	FALSE	FALSE	FALSE	FALSE	FALSE	0	FALSE	FALSE	TRUE
e12	2015	07	30	17	43	f	21	r	9.33522262503	2	109	0.671403757005	1.03545920009	right	visual	left	visual	target	voice	578.468671563	FALSE	FALSE	FALSE	FALSE	TRUE	0	FALSE	TRUE	TRUE
e12	2015	07	30	17	43	f	21	r	9.33522262503	2	110	0.547245591006	0.600443389352	right	visual	left	tactile	target	voice	511.473123304	FALSE	FALSE	FALSE	FALSE	TRUE	0	FALSE	FALSE	TRUE
e12	2015	07	30	17	43	f	21	r	9.33522262503	2	111	0.565226439008	0.954379621297	right	visual	right	visual	target	voice	448.173376353	FALSE	FALSE	FALSE	FALSE	FALSE	0	FALSE	FALSE	TRUE
e12	2015	07	30	17	43	f	21	r	9.33522262503	2	112	0.600943705998	0.578731714623	right	visual	right	visual	target	voice	497.556178016	FALSE	FALSE	FALSE	FALSE	FALSE	0	FALSE	FALSE	TRUE
e12	2015	07	30	17	43	f	21	r	9.33522262503	2	113	0.649165064009	0.554434735303	right	visual	right	visual	catch	NA	NA	FALSE	FALSE	FALSE	FALSE	TRUE	0	FALSE	TRUE	TRUE
e12	2015	07	30	17	43	f	21	r	9.33522262503	2	114	1.13720912399	1.29812642036	left	tactile	left	tactile	target	voice	520.44829732	FALSE	FALSE	FALSE	FALSE	FALSE	0	FALSE	FALSE	TRUE
e12	2015	07	30	17	43	f	21	r	9.33522262503	2	115	0.61523280901	0.863763903701	left	visual	right	visual	target	voice	427.704954986	FALSE	FALSE	FALSE	FALSE	FALSE	0	FALSE	FALSE	TRUE
e12	2015	07	30	17	43	f	21	r	9.33522262503	2	116	0.702460134024	0.780161072749	left	tactile	left	tactile	target	voice	556.260803918	FALSE	FALSE	FALSE	FALSE	TRUE	0	FALSE	TRUE	TRUE
e12	2015	07	30	17	43	f	21	r	9.33522262503	2	117	0.509248891001	0.635326069317	left	tactile	left	tactile	target	voice	453.44719835	FALSE	FALSE	FALSE	FALSE	TRUE	0	FALSE	FALSE	TRUE
e12	2015	07	30	17	43	f	21	r	9.33522262503	2	118	0.513279359991	0.909122626104	right	tactile	left	tactile	target	voice	411.019084568	FALSE	FALSE	FALSE	FALSE	TRUE	0	FALSE	TRUE	TRUE
e12	2015	07	30	17	43	f	21	r	9.33522262503	2	119	0.629863743001	0.596349034176	left	tactile	left	visual	target	voice	608.261257497	FALSE	FALSE	FALSE	FALSE	TRUE	0	FALSE	TRUE	TRUE
e12	2015	07	30	17	43	f	21	r	9.33522262503	2	120	0.548490639019	1.38457289881	left	tactile	right	tactile	target	voice	349.099056824	FALSE	FALSE	FALSE	FALSE	FALSE	0	FALSE	FALSE	TRUE
e12	2015	07	30	17	43	f	21	r	9.77858247401	2	121	3.405557021	1.35903102728	right	tactile	left	tactile	target	voice	330.494034395	FALSE	FALSE	FALSE	FALSE	FALSE	0	FALSE	FALSE	TRUE
e12	2015	07	30	17	43	f	21	r	9.77858247401	2	122	0.556902478012	0.929754191738	left	tactile	right	tactile	target	voice	314.952029905	FALSE	FALSE	FALSE	FALSE	FALSE	0	FALSE	FALSE	TRUE
e12	2015	07	30	17	43	f	21	r	9.77858247401	2	123	0.686388266011	0.548273231888	left	tactile	right	tactile	target	voice	422.707345773	FALSE	FALSE	FALSE	FALSE	FALSE	0	FALSE	FALSE	TRUE
e12	2015	07	30	17	43	f	21	r	9.77858247401	2	124	0.485954536009	1.38732492683	left	visual	right	tactile	target	voice	399.208029849	FALSE	FALSE	FALSE	FALSE	TRUE	0	FALSE	TRUE	TRUE
e12	2015	07	30	17	43	f	21	r	9.77858247401	2	125	0.410841942998	1.34773559156	left	visual	left	visual	target	voice	506.370897114	FALSE	FALSE	FALSE	FALSE	TRUE	0	FALSE	TRUE	TRUE
e12	2015	07	30	17	43	f	21	r	9.77858247401	2	126	0.404235625989	1.2218367303	left	tactile	right	tactile	target	voice	406.068634358	FALSE	FALSE	FALSE	FALSE	TRUE	0	FALSE	FALSE	TRUE
e12	2015	07	30	17	43	f	21	r	9.77858247401	2	127	0.497230060981	0.804349588221	right	visual	right	tactile	target	NA	NA	FALSE	FALSE	FALSE	FALSE	FALSE	0	FALSE	FALSE	TRUE
e12	2015	07	30	17	43	f	21	r	9.77858247401	2	128	1.366953094	1.47560918483	left	tactile	right	visual	target	voice	507.081060845	FALSE	FALSE	FALSE	FALSE	FALSE	0	FALSE	FALSE	TRUE
e12	2015	07	30	17	43	f	21	r	9.77858247401	2	129	0.475661448989	0.850836657476	right	tactile	left	tactile	target	voice	414.255829179	FALSE	FALSE	FALSE	FALSE	FALSE	0	FALSE	FALSE	TRUE
e12	2015	07	30	17	43	f	21	r	9.77858247401	2	130	0.411956497002	1.24536206699	right	visual	right	tactile	catch	NA	NA	FALSE	FALSE	FALSE	FALSE	TRUE	0	FALSE	TRUE	TRUE
e12	2015	07	30	17	43	f	21	r	9.77858247401	2	131	1.24992711301	0.666186750472	left	tactile	left	tactile	target	voice	487.767636223	FALSE	FALSE	FALSE	FALSE	FALSE	0	FALSE	FALSE	TRUE
e12	2015	07	30	17	43	f	21	r	9.77858247401	2	132	0.524620879005	0.917080588641	right	tactile	right	tactile	target	voice	541.825436027	FALSE	FALSE	FALSE	FALSE	TRUE	0	FALSE	TRUE	TRUE
e12	2015	07	30	17	43	f	21	r	9.77858247401	2	133	0.490709445992	0.523614234919	right	tactile	left	visual	target	voice	669.406312722	FALSE	FALSE	FALSE	FALSE	TRUE	0	FALSE	TRUE	TRUE
e12	2015	07	30	17	43	f	21	r	9.77858247401	2	134	0.566697033006	1.27029663666	left	visual	right	tactile	target	voice	386.389723019	FALSE	FALSE	FALSE	FALSE	TRUE	0	FALSE	TRUE	TRUE
e12	2015	07	30	17	43	f	21	r	9.77858247401	2	135	0.670654722984	1.39683611587	right	tactile	right	visual	target	voice	520.469265815	FALSE	FALSE	FALSE	FALSE	TRUE	0	FALSE	FALSE	TRUE
e12	2015	07	30	17	43	f	21	r	9.77858247401	2	136	0.486711428995	0.81423230661	left	visual	left	visual	target	voice	675.244989048	FALSE	FALSE	FALSE	FALSE	TRUE	0	FALSE	FALSE	TRUE
e12	2015	07	30	17	43	f	21	r	9.77858247401	2	137	0.621755400993	1.02373706871	left	visual	left	tactile	catch	NA	NA	FALSE	FALSE	FALSE	FALSE	TRUE	0	FALSE	FALSE	TRUE
e12	2015	07	30	17	43	f	21	r	9.77858247401	2	138	1.10164601699	1.40463512461	right	visual	right	visual	target	voice	408.343693038	FALSE	FALSE	FALSE	FALSE	TRUE	0	FALSE	FALSE	TRUE
e12	2015	07	30	17	43	f	21	r	9.77858247401	2	139	0.504167417006	0.874968257247	left	visual	left	tactile	target	voice	505.398193432	FALSE	FALSE	FALSE	FALSE	TRUE	0	FALSE	TRUE	TRUE
e12	2015	07	30	17	43	f	21	r	9.77858247401	2	140	0.454363926023	0.822298454725	left	tactile	left	visual	target	voice	499.205826927	FALSE	FALSE	FALSE	FALSE	FALSE	0	FALSE	FALSE	TRUE
e12	2015	07	30	17	43	f	21	r	9.77858247401	2	141	0.424032176001	0.708776797477	left	tactile	left	visual	target	voice	444.580680167	FALSE	FALSE	FALSE	FALSE	FALSE	0	FALSE	FALSE	TRUE
e12	2015	07	30	17	43	f	21	r	9.77858247401	2	142	0.425009676983	0.938940936994	left	tactile	left	visual	target	voice	531.481139682	FALSE	FALSE	FALSE	FALSE	FALSE	0	FALSE	FALSE	TRUE
e12	2015	07	30	17	43	f	21	r	9.77858247401	2	143	0.559948309005	0.966041067393	right	tactile	right	tactile	target	voice	358.141037286	FALSE	FALSE	FALSE	FALSE	FALSE	0	FALSE	FALSE	TRUE
e12	2015	07	30	17	43	f	21	r	9.77858247401	2	144	0.691473323997	0.643191642413	left	visual	left	tactile	target	voice	455.891830235	FALSE	FALSE	FALSE	FALSE	FALSE	0	FALSE	FALSE	TRUE
e12	2015	07	30	17	43	f	21	r	9.77858247401	2	145	0.647954165004	1.11865112065	right	tactile	right	tactile	target	voice	487.099154008	FALSE	FALSE	FALSE	FALSE	TRUE	0	FALSE	TRUE	TRUE
e12	2015	07	30	17	43	f	21	r	9.77858247401	2	146	0.564173633989	0.649934412789	right	visual	left	tactile	catch	NA	NA	FALSE	FALSE	FALSE	FALSE	TRUE	0	FALSE	TRUE	TRUE
e12	2015	07	30	17	43	f	21	r	9.77858247401	2	147	1.535432662	1.47650913289	right	tactile	left	tactile	target	voice	315.164105763	FALSE	FALSE	FALSE	FALSE	TRUE	0	FALSE	TRUE	TRUE
e12	2015	07	30	17	43	f	21	r	9.77858247401	2	148	0.436360691994	1.11614263618	left	visual	left	tactile	target	voice	423.153490497	FALSE	FALSE	FALSE	FALSE	FALSE	0	FALSE	FALSE	TRUE
e12	2015	07	30	17	43	f	21	r	9.77858247401	2	149	0.575276400021	0.728561777729	left	visual	right	tactile	target	voice	408.443513938	FALSE	FALSE	FALSE	FALSE	FALSE	0	FALSE	FALSE	TRUE
e12	2015	07	30	17	43	f	21	r	9.77858247401	2	150	0.717408987985	0.584485148936	left	tactile	left	visual	target	voice	564.745441749	FALSE	FALSE	FALSE	FALSE	FALSE	0	FALSE	FALSE	TRUE
e12	2015	07	30	17	43	f	21	r	9.77858247401	2	151	0.483827446995	1.24369888425	right	tactile	left	tactile	target	voice	466.428629443	FALSE	FALSE	FALSE	FALSE	TRUE	0	FALSE	TRUE	TRUE
e12	2015	07	30	17	43	f	21	r	9.77858247401	2	152	0.468458225019	1.19655416532	right	tactile	left	visual	target	voice	390.923737374	FALSE	FALSE	FALSE	FALSE	FALSE	0	FALSE	FALSE	TRUE
e12	2015	07	30	17	43	f	21	r	9.77858247401	2	153	0.469669662998	0.674351942287	right	visual	right	tactile	target	voice	426.944605366	FALSE	FALSE	FALSE	FALSE	TRUE	0	FALSE	FALSE	TRUE
e12	2015	07	30	17	43	f	21	r	9.77858247401	2	154	0.511778999993	1.17057655836	right	visual	left	tactile	target	voice	385.893047292	FALSE	FALSE	FALSE	FALSE	TRUE	0	FALSE	TRUE	TRUE
e12	2015	07	30	17	43	f	21	r	9.77858247401	2	155	0.624347531004	0.602213608856	left	visual	left	visual	target	voice	583.7411088	FALSE	FALSE	FALSE	FALSE	TRUE	0	FALSE	TRUE	TRUE
e12	2015	07	30	17	43	f	21	r	9.77858247401	2	156	0.641670091019	1.10349157217	right	tactile	right	tactile	target	voice	386.033666495	FALSE	FALSE	FALSE	FALSE	FALSE	0	FALSE	FALSE	TRUE
e12	2015	07	30	17	43	f	21	r	9.77858247401	2	157	0.476481134014	0.979798848571	left	visual	right	tactile	target	voice	409.773822088	FALSE	FALSE	FALSE	FALSE	TRUE	0	FALSE	TRUE	TRUE
e12	2015	07	30	17	43	f	21	r	9.77858247401	2	158	0.441367353022	1.03123353089	right	visual	right	visual	target	voice	700.726809766	FALSE	FALSE	FALSE	FALSE	TRUE	0	FALSE	FALSE	TRUE
e12	2015	07	30	17	43	f	21	r	9.77858247401	2	159	0.401532435004	1.22731797383	left	visual	left	visual	target	voice	441.814189835	FALSE	FALSE	FALSE	FALSE	FALSE	0	FALSE	FALSE	TRUE
e12	2015	07	30	17	43	f	21	r	9.77858247401	2	160	0.404134253011	0.866454982697	right	tactile	right	visual	target	voice	393.424561975	FALSE	FALSE	FALSE	FALSE	FALSE	0	FALSE	FALSE	TRUE
e12	2015	07	30	17	43	f	21	r	23.531615282	3	1	3.67685682498	1.0040458794	right	visual	left	visual	target	voice	364.306402247	FALSE	FALSE	FALSE	FALSE	FALSE	0	FALSE	FALSE	TRUE
e12	2015	07	30	17	43	f	21	r	23.531615282	3	2	0.566417817987	1.43033635914	left	visual	left	visual	target	voice	448.777903512	FALSE	FALSE	FALSE	FALSE	TRUE	0	FALSE	FALSE	TRUE
e12	2015	07	30	17	43	f	21	r	23.531615282	3	3	0.530877075013	0.94941344208	right	tactile	left	tactile	target	voice	426.646046573	FALSE	FALSE	FALSE	FALSE	FALSE	0	FALSE	FALSE	TRUE
e12	2015	07	30	17	43	f	21	r	23.531615282	3	4	0.490708515019	1.01608845849	left	visual	left	visual	target	voice	419.370343181	FALSE	FALSE	FALSE	FALSE	FALSE	0	FALSE	FALSE	TRUE
e12	2015	07	30	17	43	f	21	r	23.531615282	3	5	0.451063125016	0.947441881604	left	visual	left	tactile	target	voice	432.676137047	FALSE	FALSE	FALSE	FALSE	TRUE	0	FALSE	TRUE	TRUE
e12	2015	07	30	17	43	f	21	r	23.531615282	3	6	0.481701690005	0.992198810548	right	visual	left	tactile	target	voice	322.153854126	FALSE	FALSE	FALSE	FALSE	TRUE	0	FALSE	TRUE	TRUE
e12	2015	07	30	17	43	f	21	r	23.531615282	3	7	0.504734607995	1.18127830757	right	visual	right	tactile	target	voice	430.728882086	FALSE	FALSE	FALSE	FALSE	FALSE	0	FALSE	FALSE	TRUE
e12	2015	07	30	17	43	f	21	r	23.531615282	3	8	0.446959260997	1.43517554797	left	visual	left	tactile	target	voice	435.41740271	FALSE	FALSE	FALSE	FALSE	TRUE	0	FALSE	FALSE	TRUE
e12	2015	07	30	17	43	f	21	r	23.531615282	3	9	0.411841152003	1.3863665183	right	visual	left	tactile	target	voice	367.850892362	FALSE	FALSE	FALSE	FALSE	FALSE	0	FALSE	FALSE	TRUE
e12	2015	07	30	17	43	f	21	r	23.531615282	3	10	0.417292043014	0.966921438474	right	tactile	left	tactile	target	voice	455.3701572	FALSE	FALSE	FALSE	FALSE	TRUE	0	FALSE	TRUE	TRUE
e12	2015	07	30	17	43	f	21	r	23.531615282	3	11	0.402005952026	0.964453632596	right	tactile	right	tactile	target	voice	419.49968008	FALSE	FALSE	FALSE	FALSE	TRUE	0	FALSE	FALSE	TRUE
e12	2015	07	30	17	43	f	21	r	23.531615282	3	12	0.394433973008	0.674707091952	right	visual	right	visual	target	voice	492.234528705	FALSE	FALSE	FALSE	FALSE	FALSE	0	FALSE	FALSE	TRUE
e12	2015	07	30	17	43	f	21	r	23.531615282	3	13	0.44493148601	1.2217224385	left	tactile	left	visual	target	voice	447.663686151	FALSE	FALSE	FALSE	FALSE	FALSE	0	FALSE	FALSE	TRUE
e12	2015	07	30	17	43	f	21	r	23.531615282	3	14	0.404596228007	1.02208353906	left	visual	left	visual	target	voice	561.149451591	FALSE	FALSE	FALSE	FALSE	FALSE	0	FALSE	FALSE	TRUE
e12	2015	07	30	17	43	f	21	r	23.531615282	3	15	0.415750015993	1.30070907608	right	tactile	left	visual	target	voice	324.523151561	FALSE	FALSE	FALSE	FALSE	FALSE	0	FALSE	FALSE	TRUE
e12	2015	07	30	17	43	f	21	r	23.531615282	3	16	0.411046352994	0.605190516953	left	visual	right	tactile	catch	NA	NA	FALSE	FALSE	FALSE	FALSE	FALSE	0	FALSE	FALSE	TRUE
e12	2015	07	30	17	43	f	21	r	23.531615282	3	17	1.341158453	1.04671778654	left	tactile	right	tactile	target	voice	357.548892091	FALSE	FALSE	FALSE	FALSE	TRUE	0	FALSE	FALSE	TRUE
e12	2015	07	30	17	43	f	21	r	23.531615282	3	18	0.406155057019	1.49470476061	left	tactile	left	tactile	catch	NA	NA	FALSE	FALSE	FALSE	FALSE	FALSE	0	FALSE	FALSE	TRUE
e12	2015	07	30	17	43	f	21	r	23.531615282	3	19	1.70017824302	1.21846316525	right	visual	right	visual	target	voice	486.795855424	FALSE	FALSE	FALSE	FALSE	TRUE	0	FALSE	TRUE	TRUE
e12	2015	07	30	17	43	f	21	r	23.531615282	3	20	0.405445091979	0.771061004007	left	tactile	right	tactile	target	voice	552.763673681	FALSE	FALSE	FALSE	FALSE	FALSE	0	FALSE	FALSE	TRUE
e12	2015	07	30	17	43	f	21	r	23.531615282	3	21	0.404610736994	0.912517416403	left	tactile	left	tactile	target	voice	467.307612271	FALSE	FALSE	FALSE	FALSE	TRUE	0	FALSE	FALSE	TRUE
e12	2015	07	30	17	43	f	21	r	23.531615282	3	22	0.435823014996	0.995225412041	left	visual	left	tactile	catch	NA	NA	FALSE	FALSE	FALSE	FALSE	TRUE	0	FALSE	TRUE	TRUE
e12	2015	07	30	17	43	f	21	r	23.531615282	3	23	1.23379684798	0.681094289073	right	tactile	right	visual	target	voice	611.2173656	FALSE	FALSE	FALSE	FALSE	FALSE	0	FALSE	FALSE	TRUE
e12	2015	07	30	17	43	f	21	r	23.531615282	3	24	0.804231679998	1.32913646117	right	visual	left	visual	target	voice	365.104354511	FALSE	FALSE	FALSE	FALSE	TRUE	0	FALSE	FALSE	TRUE
e12	2015	07	30	17	43	f	21	r	23.531615282	3	25	0.470556167013	1.20837565422	right	tactile	left	visual	target	voice	499.678155436	FALSE	FALSE	FALSE	FALSE	TRUE	0	FALSE	FALSE	TRUE
e12	2015	07	30	17	43	f	21	r	23.531615282	3	26	0.604233482009	0.764021333206	right	visual	left	tactile	target	voice	406.082190457	FALSE	FALSE	FALSE	FALSE	FALSE	0	FALSE	FALSE	TRUE
e12	2015	07	30	17	43	f	21	r	23.531615282	3	27	0.622663610004	1.09639828355	left	tactile	right	visual	target	voice	437.964782119	FALSE	FALSE	FALSE	FALSE	FALSE	0	FALSE	FALSE	TRUE
e12	2015	07	30	17	43	f	21	r	23.531615282	3	28	0.620312182989	1.27837711654	left	visual	left	tactile	target	voice	549.712162116	FALSE	FALSE	FALSE	FALSE	TRUE	0	FALSE	TRUE	TRUE
e12	2015	07	30	17	43	f	21	r	23.531615282	3	29	0.565780803008	1.4402564507	right	visual	right	visual	catch	NA	NA	FALSE	FALSE	FALSE	FALSE	TRUE	0	FALSE	TRUE	TRUE
e12	2015	07	30	17	43	f	21	r	23.531615282	3	30	0.577031176974	0.974266688029	right	tactile	right	tactile	catch	voice	NA	TRUE	FALSE	FALSE	FALSE	FALSE	0	FALSE	FALSE	FALSE
e12	2015	07	30	17	43	f	21	r	23.531615282	3	31	1.496011007	1.48601569228	left	tactile	right	tactile	catch	NA	NA	FALSE	FALSE	FALSE	FALSE	TRUE	0	FALSE	TRUE	TRUE
e12	2015	07	30	17	43	f	21	r	23.531615282	3	32	1.02230609299	0.696287258789	right	visual	left	tactile	target	NA	NA	FALSE	FALSE	FALSE	FALSE	FALSE	0	FALSE	FALSE	TRUE
e12	2015	07	30	17	43	f	21	r	23.531615282	3	33	0.970196200011	0.550739904015	left	visual	right	tactile	target	voice	424.683256657	FALSE	FALSE	FALSE	FALSE	FALSE	0	FALSE	FALSE	TRUE
e12	2015	07	30	17	43	f	21	r	23.531615282	3	34	0.583620024001	0.69636546023	left	visual	right	tactile	target	voice	545.386245445	FALSE	FALSE	FALSE	FALSE	TRUE	0	FALSE	FALSE	TRUE
e12	2015	07	30	17	43	f	21	r	23.531615282	3	35	0.402259870025	0.99330322273	right	tactile	right	tactile	target	voice	464.972130925	FALSE	FALSE	FALSE	FALSE	FALSE	0	FALSE	FALSE	TRUE
e12	2015	07	30	17	43	f	21	r	23.531615282	3	36	0.393933607003	1.40709645867	right	visual	right	tactile	target	voice	401.65149403	FALSE	FALSE	FALSE	FALSE	TRUE	0	FALSE	TRUE	TRUE
e12	2015	07	30	17	43	f	21	r	23.531615282	3	37	0.473466232012	0.680515181935	right	visual	right	tactile	target	voice	686.98847873	FALSE	FALSE	FALSE	FALSE	TRUE	0	FALSE	TRUE	TRUE
e12	2015	07	30	17	43	f	21	r	23.531615282	3	38	0.416536211997	1.44675987215	left	visual	left	tactile	target	voice	366.506969527	FALSE	FALSE	FALSE	FALSE	TRUE	0	FALSE	FALSE	TRUE
e12	2015	07	30	17	43	f	21	r	23.531615282	3	39	0.408961562993	1.24849664162	right	visual	left	tactile	target	NA	NA	FALSE	FALSE	FALSE	FALSE	FALSE	0	FALSE	FALSE	TRUE
e12	2015	07	30	17	43	f	21	r	23.531615282	3	40	3.27133823998	0.709539772026	right	tactile	left	visual	target	voice	855.562149634	FALSE	FALSE	FALSE	FALSE	TRUE	0	FALSE	FALSE	TRUE
e12	2015	07	30	17	43	f	21	r	6.57832899498	3	41	4.38337637999	1.37432582168	right	tactile	right	visual	target	voice	320.167006983	FALSE	FALSE	FALSE	FALSE	FALSE	0	FALSE	FALSE	TRUE
e12	2015	07	30	17	43	f	21	r	6.57832899498	3	42	0.428958185017	0.739621768236	left	visual	right	tactile	target	voice	432.779124414	FALSE	FALSE	FALSE	FALSE	FALSE	0	FALSE	FALSE	TRUE
e12	2015	07	30	17	43	f	21	r	6.57832899498	3	43	0.430579557986	1.19814388931	left	visual	right	tactile	target	voice	452.182863373	FALSE	FALSE	FALSE	FALSE	FALSE	0	FALSE	FALSE	TRUE
e12	2015	07	30	17	43	f	21	r	6.57832899498	3	44	0.536369605979	0.857639497292	left	tactile	left	visual	target	voice	569.049265381	FALSE	FALSE	FALSE	FALSE	TRUE	0	FALSE	TRUE	TRUE
e12	2015	07	30	17	43	f	21	r	6.57832899498	3	45	0.405453957006	1.11042847597	left	tactile	right	visual	target	voice	481.704461679	FALSE	FALSE	FALSE	FALSE	TRUE	0	FALSE	FALSE	TRUE
e12	2015	07	30	17	43	f	21	r	6.57832899498	3	46	0.397922689997	0.606759632924	right	visual	right	tactile	catch	NA	NA	FALSE	FALSE	FALSE	FALSE	FALSE	0	FALSE	FALSE	TRUE
e12	2015	07	30	17	43	f	21	r	6.57832899498	3	47	1.050139795	1.26410718036	left	visual	left	visual	target	voice	518.799524318	FALSE	FALSE	FALSE	FALSE	FALSE	0	FALSE	FALSE	TRUE
e12	2015	07	30	17	43	f	21	r	6.57832899498	3	48	0.411841493013	1.47318505545	right	tactile	left	visual	target	voice	777.353055222	FALSE	FALSE	FALSE	FALSE	FALSE	0	FALSE	FALSE	TRUE
e12	2015	07	30	17	43	f	21	r	6.57832899498	3	49	1.64842030799	0.962539621352	right	tactile	left	tactile	catch	NA	NA	FALSE	FALSE	FALSE	FALSE	FALSE	0	FALSE	FALSE	TRUE
e12	2015	07	30	17	43	f	21	r	6.57832899498	3	50	1.06675138499	0.688992358807	left	tactile	right	visual	target	voice	466.624890862	FALSE	FALSE	FALSE	FALSE	FALSE	0	FALSE	FALSE	TRUE
e12	2015	07	30	17	43	f	21	r	6.57832899498	3	51	0.423171310977	1.44806404704	right	tactile	right	tactile	target	voice	406.318269612	FALSE	FALSE	FALSE	FALSE	TRUE	0	FALSE	FALSE	TRUE
e12	2015	07	30	17	43	f	21	r	6.57832899498	3	52	0.420465131989	1.17436465283	right	tactile	left	visual	target	voice	511.323181825	FALSE	FALSE	FALSE	FALSE	TRUE	0	FALSE	TRUE	TRUE
e12	2015	07	30	17	43	f	21	r	6.57832899498	3	53	4.51819370902	0.769328418882	right	tactile	left	tactile	target	voice	334.687132767	FALSE	FALSE	FALSE	FALSE	TRUE	0	FALSE	FALSE	TRUE
e12	2015	07	30	17	43	f	21	r	6.57832899498	3	54	0.461461222993	1.26559465555	right	tactile	right	tactile	target	voice	658.822030091	FALSE	FALSE	FALSE	FALSE	FALSE	0	FALSE	FALSE	TRUE
e12	2015	07	30	17	43	f	21	r	6.57832899498	3	55	0.406794862007	1.10338666112	left	visual	right	visual	target	voice	524.025118531	FALSE	FALSE	FALSE	FALSE	FALSE	0	FALSE	FALSE	TRUE
e12	2015	07	30	17	43	f	21	r	6.57832899498	3	56	0.420672701002	1.25343272483	right	tactile	left	visual	catch	NA	NA	FALSE	FALSE	FALSE	FALSE	FALSE	0	FALSE	FALSE	TRUE
e12	2015	07	30	17	43	f	21	r	6.57832899498	3	57	1.25325588201	0.99688731595	left	tactile	left	visual	target	voice	503.364895732	FALSE	FALSE	FALSE	FALSE	FALSE	0	FALSE	FALSE	TRUE
e12	2015	07	30	17	43	f	21	r	6.57832899498	3	58	0.39866491899	0.632599923922	right	tactile	left	tactile	target	voice	450.848443725	FALSE	FALSE	FALSE	FALSE	TRUE	0	FALSE	TRUE	TRUE
e12	2015	07	30	17	43	f	21	r	6.57832899498	3	59	0.468049452	0.62143760938	right	visual	right	visual	target	voice	392.361694277	FALSE	FALSE	FALSE	FALSE	FALSE	0	FALSE	FALSE	TRUE
e12	2015	07	30	17	43	f	21	r	6.57832899498	3	60	0.484954654996	0.561291472786	right	tactile	left	visual	target	voice	754.641575884	FALSE	FALSE	FALSE	FALSE	FALSE	0	FALSE	FALSE	TRUE
e12	2015	07	30	17	43	f	21	r	6.57832899498	3	61	0.403074205999	1.01178113243	right	tactile	right	visual	catch	NA	NA	FALSE	FALSE	FALSE	FALSE	FALSE	0	FALSE	FALSE	TRUE
e12	2015	07	30	17	43	f	21	r	6.57832899498	3	62	1.92567624399	1.32723018421	right	tactile	right	visual	target	voice	429.363990435	FALSE	FALSE	FALSE	FALSE	FALSE	0	FALSE	FALSE	TRUE
e12	2015	07	30	17	43	f	21	r	6.57832899498	3	63	0.411073867988	0.882088172756	left	visual	left	tactile	target	voice	563.254162931	FALSE	FALSE	FALSE	FALSE	FALSE	0	FALSE	FALSE	TRUE
e12	2015	07	30	17	43	f	21	r	6.57832899498	3	64	0.496371279005	1.49992949766	left	visual	right	tactile	target	voice	444.693806989	FALSE	FALSE	FALSE	FALSE	FALSE	0	FALSE	FALSE	TRUE
e12	2015	07	30	17	43	f	21	r	6.57832899498	3	65	0.421959891013	1.30258716336	left	tactile	right	visual	target	voice	410.913574276	FALSE	FALSE	FALSE	FALSE	FALSE	0	FALSE	FALSE	TRUE
e12	2015	07	30	17	43	f	21	r	6.57832899498	3	66	0.404363369977	0.707911311009	right	visual	right	tactile	target	NA	NA	FALSE	FALSE	FALSE	FALSE	FALSE	0	FALSE	FALSE	TRUE
e12	2015	07	30	17	43	f	21	r	6.57832899498	3	67	0.858845887997	0.539254485471	left	tactile	right	tactile	target	voice	359.275300172	FALSE	FALSE	FALSE	FALSE	FALSE	0	FALSE	FALSE	TRUE
e12	2015	07	30	17	43	f	21	r	6.57832899498	3	68	0.466772046988	0.613409019431	left	visual	left	visual	target	voice	629.487113241	FALSE	FALSE	FALSE	FALSE	FALSE	0	FALSE	FALSE	TRUE
e12	2015	07	30	17	43	f	21	r	6.57832899498	3	69	0.402433048002	0.834893187885	left	visual	left	tactile	target	voice	495.001163799	FALSE	FALSE	FALSE	FALSE	FALSE	0	FALSE	FALSE	TRUE
e12	2015	07	30	17	43	f	21	r	6.57832899498	3	70	0.550468344998	0.994299802775	left	tactile	left	tactile	target	voice	439.698063856	FALSE	FALSE	FALSE	FALSE	TRUE	0	FALSE	TRUE	TRUE
e12	2015	07	30	17	43	f	21	r	6.57832899498	3	71	0.415472262015	1.24928679929	left	tactile	right	visual	target	voice	424.454451364	FALSE	FALSE	FALSE	FALSE	FALSE	0	FALSE	FALSE	TRUE
e12	2015	07	30	17	43	f	21	r	6.57832899498	3	72	0.422456911998	1.09901803441	left	visual	right	tactile	target	voice	379.177327268	FALSE	FALSE	FALSE	FALSE	TRUE	0	FALSE	FALSE	TRUE
e12	2015	07	30	17	43	f	21	r	6.57832899498	3	73	0.426708917978	0.811125623349	left	tactile	left	visual	target	voice	649.21218931	FALSE	FALSE	FALSE	FALSE	TRUE	0	FALSE	TRUE	TRUE
e12	2015	07	30	17	43	f	21	r	6.57832899498	3	74	0.412348364975	1.40576109912	left	tactile	left	tactile	target	voice	519.823399518	FALSE	FALSE	FALSE	FALSE	FALSE	0	FALSE	FALSE	TRUE
e12	2015	07	30	17	43	f	21	r	6.57832899498	3	75	0.40051432699	1.08567869232	left	visual	right	visual	target	voice	525.226977334	FALSE	FALSE	FALSE	FALSE	FALSE	0	FALSE	FALSE	TRUE
e12	2015	07	30	17	43	f	21	r	6.57832899498	3	76	5.42285661501	1.38369280865	left	tactile	right	tactile	target	voice	469.079030008	FALSE	FALSE	FALSE	FALSE	TRUE	0	FALSE	FALSE	TRUE
e12	2015	07	30	17	43	f	21	r	6.57832899498	3	77	0.454260558996	1.20766556231	right	tactile	right	tactile	target	voice	393.657764333	FALSE	FALSE	FALSE	FALSE	FALSE	0	FALSE	FALSE	TRUE
e12	2015	07	30	17	43	f	21	r	6.57832899498	3	78	0.415801302996	1.00236417874	right	tactile	right	visual	target	voice	492.448466917	FALSE	FALSE	FALSE	FALSE	TRUE	0	FALSE	FALSE	TRUE
e12	2015	07	30	17	43	f	21	r	6.57832899498	3	79	0.426324364002	1.08758022496	left	tactile	left	visual	target	voice	555.443586723	FALSE	FALSE	FALSE	FALSE	TRUE	0	FALSE	FALSE	TRUE
e12	2015	07	30	17	43	f	21	r	6.57832899498	3	80	0.423813857982	0.769268449834	left	visual	left	tactile	target	NA	NA	FALSE	FALSE	FALSE	FALSE	TRUE	0	FALSE	TRUE	TRUE
e12	2015	07	30	17	43	f	21	r	6.00144566299	3	81	2.81853651602	1.12577058897	right	visual	left	visual	target	voice	581.530041702	FALSE	FALSE	FALSE	FALSE	TRUE	0	FALSE	TRUE	TRUE
e12	2015	07	30	17	43	f	21	r	6.00144566299	3	82	0.428252257989	0.734859069501	right	visual	right	visual	target	voice	624.91777417	FALSE	FALSE	FALSE	FALSE	FALSE	0	FALSE	FALSE	TRUE
e12	2015	07	30	17	43	f	21	r	6.00144566299	3	83	0.479917293997	0.983819373077	right	visual	left	visual	target	voice	468.875745602	FALSE	FALSE	FALSE	FALSE	TRUE	0	FALSE	TRUE	TRUE
e12	2015	07	30	17	43	f	21	r	6.00144566299	3	84	0.498132032983	0.942537702545	left	visual	right	visual	target	voice	444.028210157	FALSE	FALSE	FALSE	FALSE	FALSE	0	FALSE	FALSE	TRUE
e12	2015	07	30	17	43	f	21	r	6.00144566299	3	85	0.462813460996	1.15466476075	right	tactile	left	tactile	target	NA	NA	FALSE	FALSE	FALSE	FALSE	FALSE	0	FALSE	FALSE	TRUE
e12	2015	07	30	17	43	f	21	r	6.00144566299	3	86	1.36478904498	0.524447774872	left	tactile	right	tactile	target	voice	336.751072813	FALSE	FALSE	FALSE	FALSE	FALSE	0	FALSE	FALSE	TRUE
e12	2015	07	30	17	43	f	21	r	6.00144566299	3	87	1.69246268299	1.21002165939	right	visual	left	visual	target	voice	NA	TRUE	FALSE	FALSE	FALSE	FALSE	0	FALSE	FALSE	FALSE
e12	2015	07	30	17	43	f	21	r	6.00144566299	3	88	1.581313117	0.867124414831	right	tactile	right	visual	target	voice	479.449762817	FALSE	FALSE	FALSE	FALSE	FALSE	0	FALSE	FALSE	TRUE
e12	2015	07	30	17	43	f	21	r	6.00144566299	3	89	0.857136793988	1.14133560509	left	visual	right	visual	target	voice	526.619932585	FALSE	FALSE	FALSE	FALSE	FALSE	0	FALSE	FALSE	TRUE
e12	2015	07	30	17	43	f	21	r	6.00144566299	3	90	0.63617411899	1.14450833612	right	visual	left	tactile	target	voice	620.062465547	FALSE	FALSE	FALSE	FALSE	FALSE	0	FALSE	FALSE	TRUE
e12	2015	07	30	17	43	f	21	r	6.00144566299	3	91	0.490806763002	0.592079601655	left	tactile	left	tactile	target	voice	576.336292026	FALSE	FALSE	FALSE	FALSE	FALSE	0	FALSE	FALSE	TRUE
e12	2015	07	30	17	43	f	21	r	6.00144566299	3	92	0.440396112012	1.21469581709	right	tactile	left	visual	target	voice	491.83539857	FALSE	FALSE	FALSE	FALSE	FALSE	0	FALSE	FALSE	TRUE
e12	2015	07	30	17	43	f	21	r	6.00144566299	3	93	0.394356006989	0.662698280942	left	visual	left	visual	target	voice	441.386650724	FALSE	FALSE	FALSE	FALSE	FALSE	0	FALSE	FALSE	TRUE
e12	2015	07	30	17	43	f	21	r	6.00144566299	3	94	0.403867379995	0.843292820473	left	tactile	right	visual	target	voice	523.602376197	FALSE	FALSE	FALSE	FALSE	FALSE	0	FALSE	FALSE	TRUE
e12	2015	07	30	17	43	f	21	r	6.00144566299	3	95	0.404082169989	1.49445600381	left	visual	left	visual	catch	NA	NA	FALSE	FALSE	FALSE	FALSE	TRUE	0	FALSE	TRUE	TRUE
e12	2015	07	30	17	43	f	21	r	6.00144566299	3	96	1.254541548	0.972131354075	left	tactile	left	visual	target	voice	431.9887686	FALSE	FALSE	FALSE	FALSE	FALSE	0	FALSE	FALSE	TRUE
e12	2015	07	30	17	43	f	21	r	6.00144566299	3	97	0.449377686018	1.41138250808	right	visual	right	tactile	target	voice	512.139053579	FALSE	FALSE	FALSE	FALSE	TRUE	0	FALSE	TRUE	TRUE
e12	2015	07	30	17	43	f	21	r	6.00144566299	3	98	0.97541330001	1.02173417751	right	visual	left	tactile	target	voice	416.709967161	FALSE	FALSE	FALSE	FALSE	FALSE	0	FALSE	FALSE	TRUE
e12	2015	07	30	17	43	f	21	r	6.00144566299	3	99	2.43181998699	0.921607243317	left	tactile	right	visual	catch	NA	NA	FALSE	FALSE	FALSE	FALSE	TRUE	0	FALSE	TRUE	TRUE
e12	2015	07	30	17	43	f	21	r	6.00144566299	3	100	1.53144705301	0.713900813313	left	tactile	right	tactile	target	voice	361.298663367	FALSE	FALSE	FALSE	FALSE	TRUE	0	FALSE	TRUE	TRUE
e12	2015	07	30	17	43	f	21	r	6.00144566299	3	101	0.752083552012	1.42062708673	left	tactile	left	tactile	target	voice	445.959653938	FALSE	FALSE	FALSE	FALSE	TRUE	0	FALSE	FALSE	TRUE
e12	2015	07	30	17	43	f	21	r	6.00144566299	3	102	0.555060270999	0.564751538577	left	visual	right	tactile	target	voice	846.212340082	FALSE	FALSE	FALSE	FALSE	TRUE	0	FALSE	TRUE	TRUE
e12	2015	07	30	17	43	f	21	r	6.00144566299	3	103	0.506891391997	0.537704573108	right	tactile	right	tactile	target	voice	390.84998655	FALSE	FALSE	FALSE	FALSE	FALSE	0	FALSE	FALSE	TRUE
e12	2015	07	30	17	43	f	21	r	6.00144566299	3	104	0.549400149001	1.10780602315	right	tactile	right	visual	target	voice	495.945307513	FALSE	FALSE	FALSE	FALSE	TRUE	0	FALSE	TRUE	TRUE
e12	2015	07	30	17	43	f	21	r	6.00144566299	3	105	0.449147819978	0.7169108024	left	tactile	left	visual	target	voice	553.249037242	FALSE	FALSE	FALSE	FALSE	FALSE	0	FALSE	FALSE	TRUE
e12	2015	07	30	17	43	f	21	r	6.00144566299	3	106	0.560388909973	1.18423973694	right	visual	left	tactile	target	voice	412.13892572	FALSE	FALSE	FALSE	FALSE	FALSE	0	FALSE	FALSE	TRUE
e12	2015	07	30	17	43	f	21	r	6.00144566299	3	107	0.503700981004	1.39102922839	right	tactile	right	visual	target	voice	NA	TRUE	FALSE	FALSE	FALSE	TRUE	0	FALSE	TRUE	FALSE
e12	2015	07	30	17	43	f	21	r	6.00144566299	3	108	1.547969284	1.01989688567	left	tactile	left	visual	target	voice	453.870913974	FALSE	FALSE	FALSE	FALSE	TRUE	0	FALSE	FALSE	TRUE
e12	2015	07	30	17	43	f	21	r	6.00144566299	3	109	0.827935681998	0.952745986563	right	visual	right	visual	target	voice	577.909514104	FALSE	FALSE	FALSE	FALSE	TRUE	0	FALSE	TRUE	TRUE
e12	2015	07	30	17	43	f	21	r	6.00144566299	3	110	0.399031611014	0.633687424548	right	visual	left	tactile	catch	NA	NA	FALSE	FALSE	FALSE	FALSE	TRUE	0	FALSE	FALSE	TRUE
e12	2015	07	30	17	43	f	21	r	6.00144566299	3	111	0.998226990021	0.71819875025	right	visual	right	visual	target	voice	459.689400421	FALSE	FALSE	FALSE	FALSE	FALSE	0	FALSE	FALSE	TRUE
e12	2015	07	30	17	43	f	21	r	6.00144566299	3	112	0.500032815995	1.10978702911	left	visual	left	visual	target	voice	495.341409551	FALSE	FALSE	FALSE	FALSE	FALSE	0	FALSE	FALSE	TRUE
e12	2015	07	30	17	43	f	21	r	6.00144566299	3	113	0.401502797002	1.28020929826	right	visual	right	visual	target	voice	655.060847377	FALSE	FALSE	FALSE	FALSE	TRUE	0	FALSE	FALSE	TRUE
e12	2015	07	30	17	43	f	21	r	6.00144566299	3	114	1.46358295699	1.21519820918	right	visual	right	tactile	target	voice	445.944492472	FALSE	FALSE	FALSE	FALSE	TRUE	0	FALSE	TRUE	TRUE
e12	2015	07	30	17	43	f	21	r	6.00144566299	3	115	0.578277066001	0.885633099015	left	visual	right	visual	target	voice	503.975353669	FALSE	FALSE	FALSE	FALSE	FALSE	0	FALSE	FALSE	TRUE
e12	2015	07	30	17	43	f	21	r	6.00144566299	3	116	0.395249285997	1.45919779968	left	tactile	left	tactile	target	voice	446.618304995	FALSE	FALSE	FALSE	FALSE	TRUE	0	FALSE	TRUE	TRUE
e12	2015	07	30	17	43	f	21	r	6.00144566299	3	117	0.740691695013	0.782629590404	right	tactile	left	visual	target	voice	372.396234248	FALSE	FALSE	FALSE	FALSE	FALSE	0	FALSE	FALSE	TRUE
e12	2015	07	30	17	43	f	21	r	6.00144566299	3	118	0.716496517009	0.785250604605	right	tactile	right	visual	target	voice	471.682201023	FALSE	FALSE	FALSE	FALSE	TRUE	0	FALSE	TRUE	TRUE
e12	2015	07	30	17	43	f	21	r	6.00144566299	3	119	0.614451451984	0.873107443824	right	visual	left	visual	target	voice	588.883805845	FALSE	FALSE	FALSE	FALSE	TRUE	0	FALSE	TRUE	TRUE
e12	2015	07	30	17	43	f	21	r	6.00144566299	3	120	0.586216026015	0.647855130975	left	visual	right	visual	target	voice	474.047760683	FALSE	FALSE	FALSE	FALSE	FALSE	0	FALSE	FALSE	TRUE
e12	2015	07	30	17	43	f	21	r	6.35307431902	3	121	2.97563284999	1.16799645916	left	tactile	right	tactile	target	voice	NA	TRUE	FALSE	FALSE	FALSE	FALSE	0	FALSE	FALSE	FALSE
e12	2015	07	30	17	43	f	21	r	6.35307431902	3	122	0.939339817996	1.41711032462	right	visual	right	visual	target	voice	500.766679033	FALSE	FALSE	FALSE	FALSE	FALSE	0	FALSE	FALSE	TRUE
e12	2015	07	30	17	43	f	21	r	6.35307431902	3	123	0.587677325995	0.719943166521	right	visual	left	visual	target	NA	NA	FALSE	FALSE	FALSE	FALSE	TRUE	0	FALSE	FALSE	TRUE
e12	2015	07	30	17	43	f	21	r	6.35307431902	3	124	1.031285451	0.563641709968	left	visual	right	visual	target	voice	368.65503568	FALSE	FALSE	FALSE	FALSE	FALSE	0	FALSE	FALSE	TRUE
e12	2015	07	30	17	43	f	21	r	6.35307431902	3	125	0.751041153009	0.702514089694	left	tactile	left	tactile	target	voice	542.373176955	FALSE	FALSE	FALSE	FALSE	FALSE	0	FALSE	FALSE	TRUE
e12	2015	07	30	17	43	f	21	r	6.35307431902	3	126	0.717053656001	1.09303227875	right	tactile	right	tactile	target	voice	421.312355902	FALSE	FALSE	FALSE	FALSE	TRUE	0	FALSE	TRUE	TRUE
e12	2015	07	30	17	43	f	21	r	6.35307431902	3	127	0.586640082998	0.7245481197	right	visual	right	tactile	target	NA	NA	FALSE	FALSE	FALSE	FALSE	FALSE	0	FALSE	FALSE	TRUE
e12	2015	07	30	17	43	f	21	r	6.35307431902	3	128	0.72414056398	0.977209168557	left	visual	right	visual	catch	NA	NA	FALSE	FALSE	FALSE	FALSE	TRUE	0	FALSE	FALSE	TRUE
e12	2015	07	30	17	43	f	21	r	6.35307431902	3	129	1.285990417	0.841708156645	left	visual	left	visual	target	voice	866.719055019	FALSE	FALSE	FALSE	FALSE	TRUE	0	FALSE	FALSE	TRUE
e12	2015	07	30	17	43	f	21	r	6.35307431902	3	130	0.401901956997	0.908101569082	right	tactile	right	tactile	target	voice	953.841301583	FALSE	FALSE	FALSE	FALSE	TRUE	0	FALSE	TRUE	TRUE
e12	2015	07	30	17	43	f	21	r	6.35307431902	3	131	0.397002548998	1.40562314888	left	visual	right	visual	target	voice	383.468337764	FALSE	FALSE	FALSE	FALSE	TRUE	0	FALSE	FALSE	TRUE
e12	2015	07	30	17	43	f	21	r	6.35307431902	3	132	0.40661359299	0.585576248185	left	tactile	right	visual	target	voice	463.667969481	FALSE	FALSE	FALSE	FALSE	FALSE	0	FALSE	FALSE	TRUE
e12	2015	07	30	17	43	f	21	r	6.35307431902	3	133	0.615285495005	1.16127069794	right	visual	left	visual	catch	NA	NA	FALSE	FALSE	FALSE	FALSE	TRUE	0	FALSE	TRUE	TRUE
e12	2015	07	30	17	43	f	21	r	6.35307431902	3	134	1.13107518401	1.02819503285	left	visual	left	tactile	target	voice	471.367976832	FALSE	FALSE	FALSE	FALSE	TRUE	0	FALSE	FALSE	TRUE
e12	2015	07	30	17	43	f	21	r	6.35307431902	3	135	0.531757850025	1.1085560825	left	tactile	left	visual	catch	NA	NA	FALSE	FALSE	FALSE	FALSE	TRUE	0	FALSE	TRUE	TRUE
e12	2015	07	30	17	43	f	21	r	6.35307431902	3	136	1.03174659199	1.31008136865	right	tactile	left	tactile	target	voice	310.614164016	FALSE	FALSE	FALSE	FALSE	FALSE	0	FALSE	FALSE	TRUE
e12	2015	07	30	17	43	f	21	r	6.35307431902	3	137	0.461088587006	0.677736487079	left	tactile	right	visual	target	voice	500.156817579	FALSE	FALSE	FALSE	FALSE	FALSE	0	FALSE	FALSE	TRUE
e12	2015	07	30	17	43	f	21	r	6.35307431902	3	138	0.431164445996	0.999615857271	left	tactile	right	visual	target	voice	418.787336414	FALSE	FALSE	FALSE	FALSE	FALSE	0	FALSE	FALSE	TRUE
e12	2015	07	30	17	43	f	21	r	6.35307431902	3	139	0.444687283976	1.43398924553	left	visual	left	visual	target	voice	348.83300314	FALSE	FALSE	FALSE	FALSE	FALSE	0	FALSE	FALSE	TRUE
e12	2015	07	30	17	43	f	21	r	6.35307431902	3	140	0.473463424016	0.963383563156	left	tactile	left	tactile	target	voice	307.274710533	FALSE	FALSE	FALSE	FALSE	FALSE	0	FALSE	FALSE	TRUE
e12	2015	07	30	17	43	f	21	r	6.35307431902	3	141	0.478172408009	0.77213298541	left	visual	left	tactile	target	voice	266.257110256	FALSE	FALSE	FALSE	FALSE	TRUE	0	FALSE	TRUE	TRUE
e12	2015	07	30	17	43	f	21	r	6.35307431902	3	142	0.424196692999	0.59912036205	right	tactile	left	tactile	target	voice	920.334498602	FALSE	FALSE	FALSE	FALSE	TRUE	0	FALSE	TRUE	TRUE
e12	2015	07	30	17	43	f	21	r	6.35307431902	3	143	0.40007895598	0.893334476874	right	visual	left	tactile	target	voice	461.002013792	FALSE	FALSE	FALSE	FALSE	TRUE	0	FALSE	TRUE	TRUE
e12	2015	07	30	17	43	f	21	r	6.35307431902	3	144	0.43861302	0.601837364689	right	visual	left	visual	target	voice	537.160609965	FALSE	FALSE	FALSE	FALSE	FALSE	0	FALSE	FALSE	TRUE
e12	2015	07	30	17	43	f	21	r	6.35307431902	3	145	0.413371992996	1.30330404325	left	tactile	right	tactile	target	voice	567.31647643	FALSE	FALSE	FALSE	FALSE	FALSE	0	FALSE	FALSE	TRUE
e12	2015	07	30	17	43	f	21	r	6.35307431902	3	146	0.502551017009	0.673647511103	right	tactile	left	visual	target	voice	557.972654555	FALSE	FALSE	FALSE	FALSE	TRUE	0	FALSE	FALSE	TRUE
e12	2015	07	30	17	43	f	21	r	6.35307431902	3	147	0.398452889989	0.91851332333	left	tactile	right	tactile	target	voice	328.418929334	FALSE	FALSE	FALSE	FALSE	TRUE	0	FALSE	TRUE	TRUE
e12	2015	07	30	17	43	f	21	r	6.35307431902	3	148	0.472567345976	0.778732748135	right	tactile	left	tactile	target	voice	359.805623506	FALSE	FALSE	FALSE	FALSE	TRUE	0	FALSE	TRUE	TRUE
e12	2015	07	30	17	43	f	21	r	6.35307431902	3	149	0.413883778005	0.601195566626	right	visual	right	tactile	target	voice	297.086095059	FALSE	FALSE	FALSE	FALSE	TRUE	0	FALSE	TRUE	TRUE
e12	2015	07	30	17	43	f	21	r	6.35307431902	3	150	0.456418648013	1.0762795462	right	tactile	right	visual	target	voice	376.40534548	FALSE	FALSE	FALSE	FALSE	TRUE	0	FALSE	FALSE	TRUE
e12	2015	07	30	17	43	f	21	r	6.35307431902	3	151	0.488698229019	1.45580499538	right	tactile	left	tactile	target	voice	353.808194282	FALSE	FALSE	FALSE	FALSE	TRUE	0	FALSE	TRUE	TRUE
e12	2015	07	30	17	43	f	21	r	6.35307431902	3	152	0.432098482008	1.14841491717	right	tactile	right	tactile	target	voice	586.313437496	FALSE	FALSE	FALSE	FALSE	TRUE	0	FALSE	TRUE	TRUE
e12	2015	07	30	17	43	f	21	r	6.35307431902	3	153	1.83004215598	1.0144498186	right	visual	right	visual	target	voice	439.911307069	FALSE	FALSE	FALSE	FALSE	TRUE	0	FALSE	FALSE	TRUE
e12	2015	07	30	17	43	f	21	r	6.35307431902	3	154	0.491330735997	0.557789907866	left	tactile	left	visual	target	voice	495.391434786	FALSE	FALSE	FALSE	FALSE	TRUE	0	FALSE	TRUE	TRUE
e12	2015	07	30	17	43	f	21	r	6.35307431902	3	155	0.447520538	0.870678240757	left	tactile	left	tactile	target	voice	377.440828888	FALSE	FALSE	FALSE	FALSE	FALSE	0	FALSE	FALSE	TRUE
e12	2015	07	30	17	43	f	21	r	6.35307431902	3	156	0.417988878005	1.40221804895	right	visual	left	visual	target	voice	327.564702689	FALSE	FALSE	FALSE	FALSE	FALSE	0	FALSE	FALSE	TRUE
e12	2015	07	30	17	43	f	21	r	6.35307431902	3	157	0.399038720992	0.565011428832	left	visual	right	tactile	target	voice	318.497795815	FALSE	FALSE	FALSE	FALSE	FALSE	0	FALSE	FALSE	TRUE
e12	2015	07	30	17	43	f	21	r	6.35307431902	3	158	0.403836368001	0.912387139916	left	visual	right	tactile	target	voice	315.251300752	FALSE	FALSE	FALSE	FALSE	FALSE	0	FALSE	FALSE	TRUE
e12	2015	07	30	17	43	f	21	r	6.35307431902	3	159	0.484153889003	0.58809889384	left	visual	right	visual	target	voice	410.647872806	FALSE	FALSE	FALSE	FALSE	FALSE	0	FALSE	FALSE	TRUE
e12	2015	07	30	17	43	f	21	r	6.35307431902	3	160	0.637560514006	0.865665735971	right	visual	right	tactile	target	voice	396.673203679	FALSE	FALSE	FALSE	FALSE	TRUE	0	FALSE	TRUE	TRUE
e12	2015	07	30	17	43	f	21	r	38.240065334	4	1	4.31376457401	0.793247946865	left	visual	left	visual	target	voice	459.707270813	FALSE	FALSE	FALSE	FALSE	FALSE	0	FALSE	FALSE	TRUE
e12	2015	07	30	17	43	f	21	r	38.240065334	4	2	0.501514217991	1.14541819471	left	tactile	right	visual	catch	NA	NA	FALSE	FALSE	FALSE	FALSE	FALSE	0	FALSE	FALSE	TRUE
e12	2015	07	30	17	43	f	21	r	38.240065334	4	3	0.835159332986	1.30761389634	left	visual	left	visual	target	voice	424.967985309	FALSE	FALSE	FALSE	FALSE	FALSE	0	FALSE	FALSE	TRUE
e12	2015	07	30	17	43	f	21	r	38.240065334	4	4	0.460497833992	0.863874324429	left	tactile	left	tactile	target	voice	766.553962254	FALSE	FALSE	FALSE	FALSE	TRUE	0	FALSE	TRUE	TRUE
e12	2015	07	30	17	43	f	21	r	38.240065334	4	5	0.527736757009	0.740868071149	right	visual	right	visual	target	voice	588.575166505	FALSE	FALSE	FALSE	FALSE	TRUE	0	FALSE	TRUE	TRUE
e12	2015	07	30	17	43	f	21	r	38.240065334	4	6	0.508625354996	0.789703459585	left	visual	right	visual	catch	NA	NA	FALSE	FALSE	FALSE	FALSE	FALSE	0	FALSE	FALSE	TRUE
e12	2015	07	30	17	43	f	21	r	38.240065334	4	7	1.139614252	1.00745488881	left	visual	left	visual	target	voice	417.390798859	FALSE	FALSE	FALSE	FALSE	FALSE	0	FALSE	FALSE	TRUE
e12	2015	07	30	17	43	f	21	r	38.240065334	4	8	0.418242084997	1.39687333693	left	tactile	right	visual	target	voice	429.401161731	FALSE	FALSE	FALSE	FALSE	FALSE	0	FALSE	FALSE	TRUE
e12	2015	07	30	17	43	f	21	r	38.240065334	4	9	0.406087270996	1.28128455064	right	tactile	left	visual	target	voice	460.985019017	FALSE	FALSE	FALSE	FALSE	TRUE	0	FALSE	TRUE	TRUE
e12	2015	07	30	17	43	f	21	r	38.240065334	4	10	0.46035738301	0.814277756276	right	tactile	right	visual	target	voice	425.895808352	FALSE	FALSE	FALSE	FALSE	FALSE	0	FALSE	FALSE	TRUE
e12	2015	07	30	17	43	f	21	r	38.240065334	4	11	0.473715428991	0.920310432734	left	visual	right	tactile	target	voice	334.090583958	FALSE	FALSE	FALSE	FALSE	TRUE	0	FALSE	TRUE	TRUE
e12	2015	07	30	17	43	f	21	r	38.240065334	4	12	0.581364635989	0.684804008903	right	visual	left	visual	target	voice	377.80104077	FALSE	FALSE	FALSE	FALSE	FALSE	0	FALSE	FALSE	TRUE
e12	2015	07	30	17	43	f	21	r	38.240065334	4	13	0.403158448986	1.1108450515	right	tactile	left	tactile	catch	NA	NA	FALSE	FALSE	FALSE	FALSE	FALSE	0	FALSE	FALSE	TRUE
e12	2015	07	30	17	43	f	21	r	38.240065334	4	14	1.028307095	1.48950211369	right	tactile	left	visual	target	voice	445.625506953	FALSE	FALSE	FALSE	FALSE	TRUE	0	FALSE	FALSE	TRUE
e12	2015	07	30	17	43	f	21	r	38.240065334	4	15	0.447138254996	0.564048976137	left	visual	right	tactile	target	voice	415.718529519	FALSE	FALSE	FALSE	FALSE	TRUE	0	FALSE	TRUE	TRUE
e12	2015	07	30	17	43	f	21	r	38.240065334	4	16	0.40693306498	0.868691539384	left	visual	right	visual	target	voice	331.603663275	FALSE	FALSE	FALSE	FALSE	FALSE	0	FALSE	FALSE	TRUE
e12	2015	07	30	17	43	f	21	r	38.240065334	4	17	0.542813248991	0.973463420691	right	visual	right	tactile	target	voice	267.823212955	FALSE	FALSE	FALSE	FALSE	FALSE	0	FALSE	FALSE	TRUE
e12	2015	07	30	17	43	f	21	r	38.240065334	4	18	0.480863083008	1.01267270702	right	tactile	left	tactile	target	voice	347.397734644	FALSE	FALSE	FALSE	FALSE	FALSE	0	FALSE	FALSE	TRUE
e12	2015	07	30	17	43	f	21	r	38.240065334	4	19	0.511317591998	0.696047665769	right	visual	right	tactile	target	voice	437.142556882	FALSE	FALSE	FALSE	FALSE	FALSE	0	FALSE	FALSE	TRUE
e12	2015	07	30	17	43	f	21	r	38.240065334	4	20	0.401077541988	1.31128667365	left	tactile	left	tactile	target	voice	603.174861026	FALSE	FALSE	FALSE	FALSE	FALSE	0	FALSE	FALSE	TRUE
e12	2015	07	30	17	43	f	21	r	38.240065334	4	21	0.418673530017	1.13460350086	left	tactile	left	visual	target	voice	473.966843827	FALSE	FALSE	FALSE	FALSE	FALSE	0	FALSE	FALSE	TRUE
e12	2015	07	30	17	43	f	21	r	38.240065334	4	22	0.406189567002	1.24869742306	left	tactile	right	tactile	target	voice	414.609888598	FALSE	FALSE	FALSE	FALSE	FALSE	0	FALSE	FALSE	TRUE
e12	2015	07	30	17	43	f	21	r	38.240065334	4	23	0.707026456977	0.707155251908	right	tactile	left	visual	target	voice	544.70783376	FALSE	FALSE	FALSE	FALSE	FALSE	0	FALSE	FALSE	TRUE
e12	2015	07	30	17	43	f	21	r	38.240065334	4	24	0.405577717	1.34311527859	right	visual	left	visual	target	voice	425.418716099	FALSE	FALSE	FALSE	FALSE	FALSE	0	FALSE	FALSE	TRUE
e12	2015	07	30	17	43	f	21	r	38.240065334	4	25	0.410216660996	1.15874468687	right	visual	left	visual	target	voice	396.984441788	FALSE	FALSE	FALSE	FALSE	TRUE	0	FALSE	FALSE	TRUE
e12	2015	07	30	17	43	f	21	r	38.240065334	4	26	0.418023238017	1.02401739029	left	visual	right	tactile	target	voice	910.553683381	FALSE	FALSE	FALSE	FALSE	FALSE	0	FALSE	FALSE	TRUE
e12	2015	07	30	17	43	f	21	r	38.240065334	4	27	0.401483006979	0.562242694797	left	visual	left	tactile	target	voice	438.69219083	FALSE	FALSE	FALSE	FALSE	FALSE	0	FALSE	FALSE	TRUE
e12	2015	07	30	17	43	f	21	r	38.240065334	4	28	0.418920355005	0.675157597222	right	visual	right	visual	target	voice	543.183727452	FALSE	FALSE	FALSE	FALSE	TRUE	0	FALSE	TRUE	TRUE
e12	2015	07	30	17	43	f	21	r	38.240065334	4	29	0.469908640021	1.46156134629	right	tactile	left	visual	target	voice	497.365669376	FALSE	FALSE	FALSE	FALSE	TRUE	0	FALSE	FALSE	TRUE
e12	2015	07	30	17	43	f	21	r	38.240065334	4	30	0.397641418996	0.51774156264	left	tactile	right	tactile	target	voice	434.724293998	FALSE	FALSE	FALSE	FALSE	TRUE	0	FALSE	TRUE	TRUE
e12	2015	07	30	17	43	f	21	r	38.240065334	4	31	0.399062880024	1.25532613365	left	tactile	right	visual	target	voice	403.013152012	FALSE	FALSE	FALSE	FALSE	TRUE	0	FALSE	TRUE	TRUE
e12	2015	07	30	17	43	f	21	r	38.240065334	4	32	0.417006309988	1.42333168023	right	tactile	right	visual	target	voice	568.796417414	FALSE	FALSE	FALSE	FALSE	TRUE	0	FALSE	FALSE	TRUE
e12	2015	07	30	17	43	f	21	r	38.240065334	4	33	0.405948575004	0.665768911684	left	visual	left	tactile	catch	NA	NA	FALSE	FALSE	FALSE	FALSE	TRUE	0	FALSE	TRUE	TRUE
e12	2015	07	30	17	43	f	21	r	38.240065334	4	34	0.908159065992	0.770401866471	left	tactile	left	tactile	target	voice	891.768875183	FALSE	FALSE	FALSE	FALSE	TRUE	0	FALSE	TRUE	TRUE
e12	2015	07	30	17	43	f	21	r	38.240065334	4	35	0.402287773002	0.547826083255	right	tactile	right	visual	target	voice	720.729242399	FALSE	FALSE	FALSE	FALSE	FALSE	0	FALSE	FALSE	TRUE
e12	2015	07	30	17	43	f	21	r	38.240065334	4	36	0.405123663018	0.623797819497	right	visual	right	tactile	target	voice	322.482926189	FALSE	FALSE	FALSE	FALSE	FALSE	0	FALSE	FALSE	TRUE
e12	2015	07	30	17	43	f	21	r	38.240065334	4	37	0.562910460023	0.914531511586	left	visual	left	visual	target	voice	412.124149094	FALSE	FALSE	FALSE	FALSE	FALSE	0	FALSE	FALSE	TRUE
e12	2015	07	30	17	43	f	21	r	38.240065334	4	38	0.470271846978	0.743794887624	right	tactile	left	visual	target	voice	389.160347026	FALSE	FALSE	FALSE	FALSE	FALSE	0	FALSE	FALSE	TRUE
e12	2015	07	30	17	43	f	21	r	38.240065334	4	39	0.401957645983	0.985725301324	right	tactile	right	tactile	target	voice	463.480515347	FALSE	FALSE	FALSE	FALSE	TRUE	0	FALSE	TRUE	TRUE
e12	2015	07	30	17	43	f	21	r	38.240065334	4	40	0.416357298993	1.12335149038	right	visual	left	tactile	target	voice	318.925653293	FALSE	FALSE	FALSE	FALSE	TRUE	0	FALSE	TRUE	TRUE
e12	2015	07	30	17	43	f	21	r	5.31333267401	4	41	4.32412182598	1.24852957478	left	visual	right	tactile	target	voice	319.225364889	FALSE	FALSE	FALSE	FALSE	FALSE	0	FALSE	FALSE	TRUE
e12	2015	07	30	17	43	f	21	r	5.31333267401	4	42	1.006229255	1.40705604135	right	visual	left	visual	target	voice	413.2757443	FALSE	FALSE	FALSE	FALSE	TRUE	0	FALSE	TRUE	TRUE
e12	2015	07	30	17	43	f	21	r	5.31333267401	4	43	0.697695773997	1.03355491975	right	tactile	right	visual	target	voice	530.127435894	FALSE	FALSE	FALSE	FALSE	TRUE	0	FALSE	TRUE	TRUE
e12	2015	07	30	17	43	f	21	r	5.31333267401	4	44	0.544181290985	1.17378952806	left	visual	right	visual	target	voice	378.727704607	FALSE	FALSE	FALSE	FALSE	TRUE	0	FALSE	TRUE	TRUE
e12	2015	07	30	17	43	f	21	r	5.31333267401	4	45	0.408972445992	1.01552835023	right	tactile	right	visual	target	voice	509.315117437	FALSE	FALSE	FALSE	FALSE	TRUE	0	FALSE	TRUE	TRUE
e12	2015	07	30	17	43	f	21	r	5.31333267401	4	46	0.455715958989	0.564273083145	left	tactile	left	visual	target	voice	449.568484502	FALSE	FALSE	FALSE	FALSE	FALSE	0	FALSE	FALSE	TRUE
e12	2015	07	30	17	43	f	21	r	5.31333267401	4	47	0.541189734009	1.09549998519	left	visual	left	tactile	target	voice	612.394867494	FALSE	FALSE	FALSE	FALSE	TRUE	0	FALSE	TRUE	TRUE
e12	2015	07	30	17	43	f	21	r	5.31333267401	4	48	0.565904499002	0.926761932161	right	tactile	left	tactile	target	voice	307.339749503	FALSE	FALSE	FALSE	FALSE	FALSE	0	FALSE	FALSE	TRUE
e12	2015	07	30	17	43	f	21	r	5.31333267401	4	49	0.464799370005	0.541347087988	right	visual	right	visual	target	voice	389.84864566	FALSE	FALSE	FALSE	FALSE	FALSE	0	FALSE	FALSE	TRUE
e12	2015	07	30	17	43	f	21	r	5.31333267401	4	50	0.408258948999	1.22064488289	left	tactile	left	visual	target	voice	401.36970079	FALSE	FALSE	FALSE	FALSE	FALSE	0	FALSE	FALSE	TRUE
