id	year	month	day	hour	minute	sex	age	handedness	message_viewing_time	block	trial_num	trial_initiation_time	fixation_duration	cue_location	cue_modality	target_location	target_modality	target_type	target_response_key	target_response_rt	pre_target_response	feedback_response	recalibration	blink	saccade	biggest_small_saccade	critical_blink	critical_saccade	target_started_TF
e14	2015	08	04	19	21	f	20	r	363.335017329	practice	1	5.33857673104	1.18683217115	left	visual	left	tactile	target	voice	638.448064565	FALSE	FALSE	FALSE	TRUE	TRUE	0	TRUE	TRUE	TRUE
e14	2015	08	04	19	21	f	20	r	363.335017329	practice	2	12.824473367	1.10361817376	left	tactile	left	tactile	target	voice	891.825113911	FALSE	FALSE	FALSE	FALSE	TRUE	0	FALSE	FALSE	TRUE
e14	2015	08	04	19	21	f	20	r	363.335017329	practice	3	6.57629470096	1.34090310549	right	visual	left	tactile	target	voice	NA	TRUE	FALSE	FALSE	FALSE	FALSE	0	FALSE	FALSE	FALSE
e14	2015	08	04	19	21	f	20	r	363.335017329	practice	4	1.94469097711	1.45217532912	right	visual	right	tactile	target	voice	NA	TRUE	FALSE	FALSE	TRUE	TRUE	0	TRUE	TRUE	FALSE
e14	2015	08	04	19	21	f	20	r	363.335017329	practice	5	1.62582938594	1.02113866382	right	tactile	left	visual	target	voice	NA	TRUE	FALSE	FALSE	FALSE	TRUE	0	FALSE	TRUE	FALSE
e14	2015	08	04	19	21	f	20	r	363.335017329	practice	6	5.15230639407	0.967021615969	left	visual	left	tactile	target	voice	NA	TRUE	FALSE	FALSE	TRUE	TRUE	0	FALSE	FALSE	FALSE
e14	2015	08	04	19	21	f	20	r	363.335017329	practice	7	2.7103755339	0.832460491092	left	tactile	right	tactile	target	voice	499.792100629	FALSE	FALSE	FALSE	FALSE	FALSE	0	FALSE	FALSE	TRUE
e14	2015	08	04	19	21	f	20	r	363.335017329	practice	8	1.338163701	0.762615659501	left	visual	left	visual	target	voice	508.435702184	FALSE	FALSE	FALSE	TRUE	TRUE	0	FALSE	TRUE	TRUE
e14	2015	08	04	19	21	f	20	r	363.335017329	practice	9	5.78408055799	0.742978002582	right	visual	left	tactile	target	voice	489.188159234	FALSE	FALSE	FALSE	FALSE	FALSE	0	FALSE	FALSE	TRUE
e14	2015	08	04	19	21	f	20	r	363.335017329	practice	10	11.986725094	0.671292854024	left	visual	right	tactile	target	voice	453.491134802	FALSE	FALSE	FALSE	TRUE	TRUE	0	TRUE	TRUE	TRUE
e14	2015	08	04	19	21	f	20	r	363.335017329	practice	11	1.45780148904	1.0508150169	left	visual	right	tactile	target	voice	438.936452847	FALSE	FALSE	FALSE	FALSE	TRUE	0	FALSE	TRUE	TRUE
e14	2015	08	04	19	21	f	20	r	363.335017329	practice	12	8.13019708009	0.752576164537	right	tactile	left	visual	target	voice	650.657773134	FALSE	FALSE	FALSE	FALSE	FALSE	0	FALSE	FALSE	TRUE
e14	2015	08	04	19	21	f	20	r	363.335017329	practice	13	1.28880276997	1.25812835748	right	visual	left	visual	target	voice	711.454292177	FALSE	FALSE	FALSE	FALSE	TRUE	0	FALSE	TRUE	TRUE
e14	2015	08	04	19	21	f	20	r	363.335017329	practice	14	1.00582124502	0.522552477339	left	visual	left	tactile	catch	NA	NA	FALSE	FALSE	FALSE	FALSE	TRUE	0	FALSE	FALSE	TRUE
e14	2015	08	04	19	21	f	20	r	363.335017329	practice	15	0.467849913985	0.900269877094	left	visual	left	visual	target	voice	NA	TRUE	FALSE	FALSE	FALSE	FALSE	0	FALSE	FALSE	FALSE
e14	2015	08	04	19	21	f	20	r	363.335017329	practice	16	1.64487454598	1.26169363559	right	visual	left	tactile	catch	NA	NA	FALSE	FALSE	FALSE	FALSE	TRUE	0	FALSE	FALSE	TRUE
e14	2015	08	04	19	21	f	20	r	363.335017329	practice	17	1.009755768	0.605323796502	right	visual	left	visual	target	voice	886.069325148	FALSE	FALSE	FALSE	FALSE	TRUE	0	FALSE	FALSE	TRUE
e14	2015	08	04	19	21	f	20	r	363.335017329	practice	18	0.997325699893	1.30030335577	right	visual	right	tactile	catch	NA	NA	FALSE	FALSE	FALSE	FALSE	TRUE	0	FALSE	FALSE	TRUE
e14	2015	08	04	19	21	f	20	r	363.335017329	practice	19	0.798322809045	1.13789715126	left	visual	right	tactile	target	voice	NA	TRUE	FALSE	FALSE	FALSE	TRUE	0	FALSE	FALSE	FALSE
e14	2015	08	04	19	21	f	20	r	363.335017329	practice	20	1.75243206404	1.15557207564	right	visual	right	tactile	target	voice	703.449801076	FALSE	FALSE	FALSE	FALSE	FALSE	0	FALSE	FALSE	TRUE
e14	2015	08	04	19	21	f	20	r	363.335017329	practice	21	1.35691530502	0.647623245976	right	tactile	left	tactile	target	voice	525.187295745	FALSE	FALSE	FALSE	FALSE	TRUE	0	FALSE	FALSE	TRUE
e14	2015	08	04	19	21	f	20	r	363.335017329	practice	22	3.56018878391	1.111362779	right	visual	left	visual	target	voice	645.853575668	FALSE	FALSE	FALSE	FALSE	FALSE	0	FALSE	FALSE	TRUE
e14	2015	08	04	19	21	f	20	r	363.335017329	practice	23	0.879709101049	1.37850876987	right	visual	right	tactile	target	voice	438.878771849	FALSE	FALSE	FALSE	FALSE	TRUE	0	FALSE	FALSE	TRUE
e14	2015	08	04	19	21	f	20	r	363.335017329	practice	24	8.88654717198	1.18675057115	right	tactile	left	visual	target	voice	664.051467553	FALSE	FALSE	FALSE	FALSE	FALSE	0	FALSE	FALSE	TRUE
e14	2015	08	04	19	21	f	20	r	363.335017329	practice	25	1.11474533693	1.41146029803	left	visual	right	visual	target	voice	471.129167709	FALSE	FALSE	FALSE	FALSE	TRUE	0	FALSE	FALSE	TRUE
e14	2015	08	04	19	21	f	20	r	363.335017329	practice	26	1.00936624105	1.18517777594	right	visual	left	tactile	target	voice	515.857818886	FALSE	FALSE	FALSE	FALSE	TRUE	0	FALSE	FALSE	TRUE
e14	2015	08	04	19	21	f	20	r	363.335017329	practice	27	0.818435102934	0.826765970218	right	visual	right	visual	target	voice	740.477673477	FALSE	FALSE	FALSE	FALSE	TRUE	0	FALSE	TRUE	TRUE
e14	2015	08	04	19	21	f	20	r	363.335017329	practice	28	0.844376437017	1.07917284989	left	tactile	left	tactile	target	voice	NA	TRUE	FALSE	FALSE	FALSE	TRUE	0	FALSE	FALSE	FALSE
e14	2015	08	04	19	21	f	20	r	363.335017329	practice	29	1.21129766002	0.832493075698	right	tactile	right	tactile	target	voice	656.947848969	FALSE	FALSE	FALSE	FALSE	FALSE	0	FALSE	FALSE	TRUE
e14	2015	08	04	19	21	f	20	r	363.335017329	practice	30	1.05019839096	1.40418801747	right	visual	right	tactile	target	voice	505.910448264	FALSE	FALSE	FALSE	FALSE	TRUE	0	FALSE	TRUE	TRUE
e14	2015	08	04	19	21	f	20	r	363.335017329	practice	31	2.75568787102	1.38707251213	left	tactile	left	visual	target	voice	NA	TRUE	FALSE	FALSE	FALSE	FALSE	0	FALSE	FALSE	FALSE
e14	2015	08	04	19	21	f	20	r	363.335017329	practice	32	0.881296447013	1.1753468762	right	tactile	right	visual	target	voice	643.68588652	FALSE	FALSE	FALSE	FALSE	TRUE	0	FALSE	FALSE	TRUE
e14	2015	08	04	19	21	f	20	r	363.335017329	practice	33	0.725025017047	0.880368657092	right	tactile	right	tactile	target	voice	500.648001675	FALSE	FALSE	FALSE	TRUE	TRUE	0	TRUE	TRUE	TRUE
e14	2015	08	04	19	21	f	20	r	363.335017329	practice	34	0.561506928061	1.38750297649	left	tactile	right	tactile	target	voice	270.054104272	FALSE	FALSE	FALSE	FALSE	TRUE	0	FALSE	FALSE	TRUE
e14	2015	08	04	19	21	f	20	r	363.335017329	practice	35	0.738295320887	1.0464235951	right	tactile	left	tactile	target	voice	407.211085665	FALSE	FALSE	FALSE	FALSE	TRUE	0	FALSE	TRUE	TRUE
e14	2015	08	04	19	21	f	20	r	363.335017329	practice	36	3.67056213599	1.25553966146	left	tactile	right	tactile	target	voice	488.406016142	FALSE	FALSE	FALSE	FALSE	TRUE	0	FALSE	FALSE	TRUE
e14	2015	08	04	19	21	f	20	r	363.335017329	practice	37	0.712954760063	1.34532916025	right	tactile	left	visual	target	voice	751.158112544	FALSE	FALSE	FALSE	FALSE	TRUE	0	FALSE	TRUE	TRUE
e14	2015	08	04	19	21	f	20	r	363.335017329	practice	38	2.51006348	0.701545917946	left	tactile	right	visual	target	voice	600.370889879	FALSE	FALSE	FALSE	FALSE	TRUE	0	FALSE	TRUE	TRUE
e14	2015	08	04	19	21	f	20	r	363.335017329	practice	39	3.24025888694	1.4191604401	left	tactile	right	visual	target	voice	638.92117166	FALSE	FALSE	FALSE	FALSE	TRUE	0	FALSE	FALSE	TRUE
e14	2015	08	04	19	21	f	20	r	363.335017329	practice	40	0.683316220064	0.920521204139	right	visual	right	tactile	target	voice	565.154670621	FALSE	FALSE	FALSE	TRUE	TRUE	0	TRUE	TRUE	TRUE
e14	2015	08	04	19	21	f	20	r	104.633693027	1	1	3.07334754104	1.44438281965	right	visual	right	tactile	target	voice	404.582371004	FALSE	FALSE	FALSE	FALSE	TRUE	0	FALSE	FALSE	TRUE
e14	2015	08	04	19	21	f	20	r	104.633693027	1	2	26.9196693749	0.791151844987	right	visual	right	tactile	target	voice	489.721760619	FALSE	FALSE	FALSE	FALSE	FALSE	0	FALSE	FALSE	TRUE
e14	2015	08	04	19	21	f	20	r	104.633693027	1	3	231.777076588	0.922563371727	right	tactile	right	visual	target	NA	NA	FALSE	FALSE	FALSE	FALSE	TRUE	0	FALSE	TRUE	TRUE
e14	2015	08	04	19	21	f	20	r	104.633693027	1	4	0.920201446046	0.868562386983	left	visual	left	tactile	target	voice	NA	TRUE	FALSE	FALSE	FALSE	FALSE	0	FALSE	FALSE	FALSE
e14	2015	08	04	19	21	f	20	r	104.633693027	1	5	1.057540735	0.821939689978	left	visual	right	tactile	target	NA	NA	FALSE	FALSE	FALSE	TRUE	TRUE	0	TRUE	TRUE	TRUE
e14	2015	08	04	19	21	f	20	r	104.633693027	1	6	2.07046581607	1.06222740783	right	tactile	right	visual	target	voice	573.478286969	FALSE	FALSE	FALSE	FALSE	FALSE	0	FALSE	FALSE	TRUE
e14	2015	08	04	19	21	f	20	r	104.633693027	1	7	0.782864957	0.807544612124	right	tactile	right	tactile	target	voice	590.417222702	FALSE	FALSE	FALSE	FALSE	TRUE	0	FALSE	TRUE	TRUE
e14	2015	08	04	19	21	f	20	r	104.633693027	1	8	0.508698994992	0.947367123903	left	tactile	left	tactile	target	voice	692.784193787	FALSE	FALSE	FALSE	FALSE	TRUE	0	FALSE	TRUE	TRUE
e14	2015	08	04	19	21	f	20	r	104.633693027	1	9	4.12657774903	0.821732706793	left	visual	right	tactile	target	voice	519.835482002	FALSE	FALSE	FALSE	FALSE	TRUE	0	FALSE	FALSE	TRUE
e14	2015	08	04	19	21	f	20	r	104.633693027	1	10	3.20060947805	0.690446997556	right	tactile	right	tactile	target	voice	514.140302199	FALSE	FALSE	FALSE	FALSE	TRUE	0	FALSE	TRUE	TRUE
e14	2015	08	04	19	21	f	20	r	104.633693027	1	11	4.07503354503	0.513524506428	left	tactile	left	tactile	target	voice	583.95400818	FALSE	FALSE	FALSE	FALSE	FALSE	0	FALSE	FALSE	TRUE
e14	2015	08	04	19	21	f	20	r	104.633693027	1	12	0.744432186009	0.632793151047	right	tactile	left	tactile	target	voice	497.15685565	FALSE	FALSE	FALSE	TRUE	TRUE	0	FALSE	TRUE	TRUE
e14	2015	08	04	19	21	f	20	r	104.633693027	1	13	3.36709167797	0.627591684894	right	visual	left	visual	target	voice	552.962816902	FALSE	FALSE	FALSE	FALSE	TRUE	0	FALSE	TRUE	TRUE
e14	2015	08	04	19	21	f	20	r	104.633693027	1	14	0.714214804	1.30259308164	left	tactile	right	visual	target	voice	443.070825073	FALSE	FALSE	FALSE	TRUE	TRUE	0	FALSE	TRUE	TRUE
e14	2015	08	04	19	21	f	20	r	104.633693027	1	15	2.85113685799	1.08171835392	left	visual	left	visual	target	voice	561.142433784	FALSE	FALSE	FALSE	FALSE	FALSE	0	FALSE	FALSE	TRUE
e14	2015	08	04	19	21	f	20	r	104.633693027	1	16	0.933640702977	1.07463160036	right	tactile	left	tactile	target	voice	543.607357307	FALSE	FALSE	FALSE	FALSE	FALSE	0	FALSE	FALSE	TRUE
e14	2015	08	04	19	21	f	20	r	104.633693027	1	17	2.62943432992	1.28482452866	left	visual	left	tactile	target	voice	526.773312013	FALSE	FALSE	FALSE	FALSE	TRUE	0	FALSE	FALSE	TRUE
e14	2015	08	04	19	21	f	20	r	104.633693027	1	18	0.900434468058	1.27552110553	right	visual	right	visual	target	voice	635.672635166	FALSE	FALSE	FALSE	TRUE	TRUE	0	TRUE	TRUE	TRUE
e14	2015	08	04	19	21	f	20	r	104.633693027	1	19	2.53610684199	1.05099579348	right	tactile	right	visual	catch	NA	NA	FALSE	FALSE	FALSE	TRUE	TRUE	0	TRUE	TRUE	TRUE
e14	2015	08	04	19	21	f	20	r	104.633693027	1	20	1.03429036902	1.22147533719	right	tactile	left	tactile	target	voice	588.206955581	FALSE	FALSE	FALSE	FALSE	TRUE	0	FALSE	FALSE	TRUE
e14	2015	08	04	19	21	f	20	r	104.633693027	1	21	10.444827037	1.08790508965	right	visual	left	visual	target	voice	652.977024205	FALSE	FALSE	FALSE	FALSE	FALSE	0	FALSE	FALSE	TRUE
e14	2015	08	04	19	21	f	20	r	104.633693027	1	22	3.06455221795	1.23083645237	left	visual	right	tactile	catch	NA	NA	FALSE	FALSE	FALSE	FALSE	FALSE	0	FALSE	FALSE	TRUE
e14	2015	08	04	19	21	f	20	r	104.633693027	1	23	4.38532021106	1.45519104947	right	visual	right	visual	target	voice	587.96008816	FALSE	FALSE	FALSE	FALSE	TRUE	0	FALSE	TRUE	TRUE
e14	2015	08	04	19	21	f	20	r	104.633693027	1	24	2.98773784703	0.660443572745	right	visual	left	visual	target	voice	519.876707927	FALSE	FALSE	FALSE	TRUE	TRUE	0	FALSE	TRUE	TRUE
e14	2015	08	04	19	21	f	20	r	104.633693027	1	25	6.22529909899	0.925299028559	right	tactile	left	tactile	catch	NA	NA	FALSE	FALSE	FALSE	TRUE	TRUE	0	FALSE	TRUE	TRUE
e14	2015	08	04	19	21	f	20	r	104.633693027	1	26	3.34552418406	1.24574283498	left	visual	right	visual	target	voice	538.361057756	FALSE	FALSE	FALSE	FALSE	FALSE	0	FALSE	FALSE	TRUE
e14	2015	08	04	19	21	f	20	r	104.633693027	1	27	1.33332037495	0.567792674543	right	tactile	left	tactile	target	voice	473.437688197	FALSE	FALSE	FALSE	FALSE	TRUE	0	FALSE	TRUE	TRUE
e14	2015	08	04	19	21	f	20	r	104.633693027	1	28	1.23629554303	1.11096250242	right	tactile	left	tactile	target	voice	515.62876231	FALSE	FALSE	FALSE	TRUE	TRUE	0	TRUE	TRUE	TRUE
e14	2015	08	04	19	21	f	20	r	104.633693027	1	29	0.840570235974	1.4383480338	left	tactile	right	visual	target	voice	455.633886973	FALSE	FALSE	FALSE	FALSE	TRUE	0	FALSE	TRUE	TRUE
e14	2015	08	04	19	21	f	20	r	104.633693027	1	30	6.07949534	1.44163148298	left	tactile	right	tactile	target	voice	471.862404724	FALSE	FALSE	FALSE	FALSE	TRUE	0	FALSE	TRUE	TRUE
e14	2015	08	04	19	21	f	20	r	104.633693027	1	31	1.14074052498	0.943965015594	left	visual	right	tactile	target	voice	318.02748912	FALSE	FALSE	FALSE	FALSE	TRUE	0	FALSE	FALSE	TRUE
e14	2015	08	04	19	21	f	20	r	104.633693027	1	32	1.21090061404	0.706837378005	left	tactile	right	tactile	target	voice	364.719305653	FALSE	FALSE	FALSE	FALSE	FALSE	0	FALSE	FALSE	TRUE
e14	2015	08	04	19	21	f	20	r	104.633693027	1	33	0.952995111002	0.934958032768	left	tactile	left	tactile	target	voice	421.407663962	FALSE	FALSE	FALSE	FALSE	FALSE	0	FALSE	FALSE	TRUE
e14	2015	08	04	19	21	f	20	r	104.633693027	1	34	0.869835929014	0.506294419911	right	visual	right	visual	target	voice	544.19973481	FALSE	FALSE	FALSE	FALSE	FALSE	0	FALSE	FALSE	TRUE
e14	2015	08	04	19	21	f	20	r	104.633693027	1	35	0.899694655905	1.11406364881	right	visual	left	visual	catch	NA	NA	FALSE	FALSE	FALSE	FALSE	FALSE	0	FALSE	FALSE	TRUE
e14	2015	08	04	19	21	f	20	r	104.633693027	1	36	4.45758150192	0.787521998159	left	visual	right	visual	target	voice	520.104014548	FALSE	FALSE	FALSE	FALSE	FALSE	0	FALSE	FALSE	TRUE
e14	2015	08	04	19	21	f	20	r	104.633693027	1	37	3.92209314299	0.878781630687	right	visual	left	visual	target	voice	596.719654044	FALSE	FALSE	FALSE	FALSE	TRUE	0	FALSE	TRUE	TRUE
e14	2015	08	04	19	21	f	20	r	104.633693027	1	38	1.17714106396	1.44006508342	left	tactile	left	visual	target	voice	637.115676305	FALSE	FALSE	FALSE	FALSE	TRUE	0	FALSE	TRUE	TRUE
e14	2015	08	04	19	21	f	20	r	104.633693027	1	39	1.09927274508	0.842518001808	right	tactile	right	tactile	target	voice	492.883523926	FALSE	FALSE	FALSE	FALSE	FALSE	0	FALSE	FALSE	TRUE
e14	2015	08	04	19	21	f	20	r	104.633693027	1	40	1.03975613893	1.34297312877	left	tactile	right	visual	target	voice	439.555973979	FALSE	FALSE	FALSE	FALSE	FALSE	0	FALSE	FALSE	TRUE
e14	2015	08	04	19	21	f	20	r	11.687947449	1	41	13.264138701	1.12695859189	right	visual	left	tactile	target	voice	630.663123797	FALSE	FALSE	FALSE	TRUE	TRUE	0	TRUE	TRUE	TRUE
e14	2015	08	04	19	21	f	20	r	11.687947449	1	42	1.14837183501	0.994486069481	left	visual	left	tactile	catch	NA	NA	FALSE	FALSE	FALSE	FALSE	TRUE	0	FALSE	FALSE	TRUE
e14	2015	08	04	19	21	f	20	r	11.687947449	1	43	1.06837756594	0.58700957648	left	tactile	right	tactile	target	voice	545.81712815	FALSE	FALSE	FALSE	FALSE	FALSE	0	FALSE	FALSE	TRUE
e14	2015	08	04	19	21	f	20	r	11.687947449	1	44	1.80139176501	1.16190129174	right	visual	left	visual	target	voice	472.110640025	FALSE	FALSE	FALSE	FALSE	TRUE	0	FALSE	FALSE	TRUE
e14	2015	08	04	19	21	f	20	r	11.687947449	1	45	1.013810092	1.36455507778	left	tactile	left	tactile	target	voice	524.456641986	FALSE	FALSE	FALSE	FALSE	TRUE	0	FALSE	TRUE	TRUE
e14	2015	08	04	19	21	f	20	r	11.687947449	1	46	1.17792873702	1.25079423519	left	visual	left	visual	target	voice	533.074311563	FALSE	FALSE	FALSE	FALSE	FALSE	0	FALSE	FALSE	TRUE
e14	2015	08	04	19	21	f	20	r	11.687947449	1	47	1.09831686597	1.21173549191	left	tactile	left	visual	target	voice	543.125474826	FALSE	FALSE	FALSE	FALSE	TRUE	0	FALSE	TRUE	TRUE
e14	2015	08	04	19	21	f	20	r	11.687947449	1	48	0.909657337004	0.835973554517	right	tactile	right	visual	target	voice	715.975818224	FALSE	FALSE	FALSE	FALSE	TRUE	0	FALSE	TRUE	TRUE
e14	2015	08	04	19	21	f	20	r	11.687947449	1	49	1.24180125794	0.627770653773	left	tactile	left	tactile	target	voice	413.318359875	FALSE	FALSE	FALSE	FALSE	TRUE	0	FALSE	TRUE	TRUE
e14	2015	08	04	19	21	f	20	r	11.687947449	1	50	1.25451201899	0.801913529706	left	visual	left	tactile	target	voice	421.681015985	FALSE	FALSE	FALSE	FALSE	TRUE	0	FALSE	FALSE	TRUE
e14	2015	08	04	19	21	f	20	r	11.687947449	1	51	0.88558232598	0.595663695748	left	tactile	left	visual	target	voice	368.268808932	FALSE	FALSE	FALSE	FALSE	TRUE	0	FALSE	TRUE	TRUE
e14	2015	08	04	19	21	f	20	r	11.687947449	1	52	2.30737634108	0.655943510201	left	tactile	left	visual	target	voice	467.68277348	FALSE	FALSE	FALSE	FALSE	FALSE	0	FALSE	FALSE	TRUE
e14	2015	08	04	19	21	f	20	r	11.687947449	1	53	3.13048900804	0.804921308775	left	visual	left	tactile	target	voice	529.588974896	FALSE	FALSE	FALSE	FALSE	TRUE	0	FALSE	FALSE	TRUE
e14	2015	08	04	19	21	f	20	r	11.687947449	1	54	1.49386284198	1.09293559363	right	visual	left	visual	target	voice	493.252797052	FALSE	FALSE	FALSE	FALSE	TRUE	0	FALSE	TRUE	TRUE
e14	2015	08	04	19	21	f	20	r	11.687947449	1	55	5.57796117	1.07892722063	right	visual	left	tactile	target	voice	438.300593058	FALSE	FALSE	FALSE	FALSE	TRUE	0	FALSE	TRUE	TRUE
e14	2015	08	04	19	21	f	20	r	11.687947449	1	56	3.53440755699	0.979306205528	left	tactile	right	tactile	target	voice	481.058937265	FALSE	FALSE	FALSE	FALSE	TRUE	0	FALSE	TRUE	TRUE
e14	2015	08	04	19	21	f	20	r	11.687947449	1	57	1.723887139	1.0910383283	right	visual	right	tactile	target	voice	412.866403465	FALSE	FALSE	FALSE	FALSE	TRUE	0	FALSE	TRUE	TRUE
e14	2015	08	04	19	21	f	20	r	11.687947449	1	58	1.19600376301	1.09639245272	left	visual	left	tactile	target	voice	460.349260014	FALSE	FALSE	FALSE	FALSE	TRUE	0	FALSE	TRUE	TRUE
e14	2015	08	04	19	21	f	20	r	11.687947449	1	59	1.029282943	0.961563718669	left	tactile	left	tactile	target	voice	579.523926135	FALSE	FALSE	FALSE	FALSE	TRUE	0	FALSE	TRUE	TRUE
e14	2015	08	04	19	21	f	20	r	11.687947449	1	60	0.845444348059	0.729895642399	left	tactile	right	tactile	target	voice	356.52618343	FALSE	FALSE	FALSE	FALSE	TRUE	0	FALSE	TRUE	TRUE
e14	2015	08	04	19	21	f	20	r	11.687947449	1	61	0.961815183051	1.39296038355	right	tactile	left	visual	target	voice	392.323328182	FALSE	FALSE	FALSE	FALSE	TRUE	0	FALSE	TRUE	TRUE
e14	2015	08	04	19	21	f	20	r	11.687947449	1	62	1.41266626003	0.956497855018	right	tactile	left	visual	target	voice	461.078719702	FALSE	FALSE	FALSE	FALSE	TRUE	0	FALSE	TRUE	TRUE
e14	2015	08	04	19	21	f	20	r	11.687947449	1	63	0.864798489027	1.16830424275	left	visual	left	visual	target	voice	556.490796967	FALSE	FALSE	FALSE	FALSE	TRUE	0	FALSE	TRUE	TRUE
e14	2015	08	04	19	21	f	20	r	11.687947449	1	64	0.887373128091	1.34360267075	right	visual	right	tactile	target	voice	550.002139062	FALSE	FALSE	FALSE	FALSE	TRUE	0	FALSE	TRUE	TRUE
e14	2015	08	04	19	21	f	20	r	11.687947449	1	65	0.856171227992	0.9819560825	right	visual	right	tactile	target	voice	434.531401144	FALSE	FALSE	FALSE	FALSE	TRUE	0	FALSE	TRUE	TRUE
e14	2015	08	04	19	21	f	20	r	11.687947449	1	66	0.870231459965	0.884933765009	left	visual	right	visual	target	voice	401.044143597	FALSE	FALSE	FALSE	FALSE	TRUE	0	FALSE	TRUE	TRUE
e14	2015	08	04	19	21	f	20	r	11.687947449	1	67	3.46400702302	1.26067774187	right	visual	right	tactile	catch	NA	NA	FALSE	FALSE	FALSE	FALSE	TRUE	0	FALSE	TRUE	TRUE
e14	2015	08	04	19	21	f	20	r	11.687947449	1	68	1.32231607998	1.46882965718	right	tactile	left	visual	target	voice	637.277336558	FALSE	FALSE	FALSE	FALSE	TRUE	0	FALSE	TRUE	TRUE
e14	2015	08	04	19	21	f	20	r	11.687947449	1	69	0.936782586039	1.48014048686	right	tactile	left	visual	target	voice	433.098663925	FALSE	FALSE	FALSE	FALSE	TRUE	0	FALSE	TRUE	TRUE
e14	2015	08	04	19	21	f	20	r	11.687947449	1	70	1.02144900698	1.01717140601	left	visual	left	tactile	target	voice	518.903068616	FALSE	FALSE	FALSE	FALSE	TRUE	0	FALSE	TRUE	TRUE
e14	2015	08	04	19	21	f	20	r	11.687947449	1	71	1.79847557691	0.8432431231	left	tactile	right	visual	target	voice	461.821821635	FALSE	FALSE	FALSE	FALSE	TRUE	0	FALSE	FALSE	TRUE
e14	2015	08	04	19	21	f	20	r	11.687947449	1	72	2.081261585	1.00472496087	left	visual	right	tactile	target	voice	353.140159859	FALSE	FALSE	FALSE	FALSE	TRUE	0	FALSE	TRUE	TRUE
e14	2015	08	04	19	21	f	20	r	11.687947449	1	73	0.941498993081	0.905434601804	right	visual	left	visual	target	voice	400.57413897	FALSE	FALSE	FALSE	FALSE	TRUE	0	FALSE	TRUE	TRUE
e14	2015	08	04	19	21	f	20	r	11.687947449	1	74	1.02237356501	1.22289190167	right	visual	right	tactile	target	voice	362.179954071	FALSE	FALSE	FALSE	FALSE	TRUE	0	FALSE	FALSE	TRUE
e14	2015	08	04	19	21	f	20	r	11.687947449	1	75	2.40924684703	1.09884393222	left	visual	left	tactile	target	voice	417.814721353	FALSE	FALSE	FALSE	FALSE	TRUE	0	FALSE	FALSE	TRUE
e14	2015	08	04	19	21	f	20	r	11.687947449	1	76	0.825545549975	1.13485969832	left	visual	right	visual	target	voice	417.535957298	FALSE	FALSE	FALSE	FALSE	TRUE	0	FALSE	TRUE	TRUE
e14	2015	08	04	19	21	f	20	r	11.687947449	1	77	0.930236954009	1.00918062334	right	tactile	right	tactile	target	voice	629.006627365	FALSE	FALSE	FALSE	FALSE	TRUE	0	FALSE	TRUE	TRUE
e14	2015	08	04	19	21	f	20	r	11.687947449	1	78	0.890125651029	0.87535557349	right	tactile	right	tactile	target	voice	470.814305241	FALSE	FALSE	FALSE	FALSE	TRUE	0	FALSE	TRUE	TRUE
e14	2015	08	04	19	21	f	20	r	11.687947449	1	79	1.89053353202	1.13782213862	right	visual	left	tactile	target	NA	NA	FALSE	FALSE	FALSE	FALSE	TRUE	0	FALSE	TRUE	TRUE
e14	2015	08	04	19	21	f	20	r	11.687947449	1	80	1.79154221201	0.848827776239	left	tactile	right	visual	target	voice	511.461008457	FALSE	FALSE	FALSE	FALSE	TRUE	0	FALSE	TRUE	TRUE
e14	2015	08	04	19	21	f	20	r	14.112411447	1	81	4.02129615401	0.827884752681	right	visual	left	tactile	target	voice	370.143661043	FALSE	FALSE	FALSE	FALSE	FALSE	0	FALSE	FALSE	TRUE
e14	2015	08	04	19	21	f	20	r	14.112411447	1	82	0.766212317045	1.39387392258	left	tactile	right	tactile	target	voice	492.054432281	FALSE	FALSE	FALSE	FALSE	TRUE	0	FALSE	TRUE	TRUE
e14	2015	08	04	19	21	f	20	r	14.112411447	1	83	0.782271241071	0.813471669843	right	tactile	left	tactile	target	voice	417.337619932	FALSE	FALSE	FALSE	FALSE	FALSE	0	FALSE	FALSE	TRUE
e14	2015	08	04	19	21	f	20	r	14.112411447	1	84	0.955882773967	0.629396097636	right	tactile	left	tactile	target	voice	427.311617183	FALSE	FALSE	FALSE	FALSE	TRUE	0	FALSE	TRUE	TRUE
e14	2015	08	04	19	21	f	20	r	14.112411447	1	85	0.723499774002	1.16081067256	left	visual	left	visual	catch	NA	NA	FALSE	FALSE	FALSE	FALSE	FALSE	0	FALSE	FALSE	TRUE
e14	2015	08	04	19	21	f	20	r	14.112411447	1	86	1.95341269299	0.791741470101	left	tactile	left	tactile	target	voice	467.480281601	FALSE	FALSE	FALSE	FALSE	TRUE	0	FALSE	TRUE	TRUE
e14	2015	08	04	19	21	f	20	r	14.112411447	1	87	0.734253991977	1.45675461161	right	visual	right	tactile	target	NA	NA	FALSE	FALSE	FALSE	FALSE	TRUE	0	FALSE	TRUE	TRUE
e14	2015	08	04	19	21	f	20	r	14.112411447	1	88	1.51925666805	1.00286765387	right	tactile	right	visual	target	voice	519.069237867	FALSE	FALSE	FALSE	FALSE	TRUE	0	FALSE	TRUE	TRUE
e14	2015	08	04	19	21	f	20	r	14.112411447	1	89	1.13625594403	0.854675721205	right	tactile	right	visual	target	voice	479.989447515	FALSE	FALSE	FALSE	FALSE	TRUE	0	FALSE	TRUE	TRUE
e14	2015	08	04	19	21	f	20	r	14.112411447	1	90	0.845279982081	1.27797385883	left	tactile	left	visual	target	voice	452.598841744	FALSE	FALSE	FALSE	FALSE	TRUE	0	FALSE	TRUE	TRUE
e14	2015	08	04	19	21	f	20	r	14.112411447	1	91	1.1542821459	1.10060067185	right	tactile	right	visual	target	voice	584.087234922	FALSE	FALSE	FALSE	FALSE	TRUE	0	FALSE	TRUE	TRUE
e14	2015	08	04	19	21	f	20	r	14.112411447	1	92	0.957599748974	0.698369727038	left	tactile	right	tactile	target	voice	800.916558714	FALSE	FALSE	FALSE	FALSE	TRUE	0	FALSE	TRUE	TRUE
e14	2015	08	04	19	21	f	20	r	14.112411447	1	93	5.42112221499	1.18658180515	left	tactile	left	visual	target	voice	487.974386546	FALSE	FALSE	FALSE	FALSE	TRUE	0	FALSE	FALSE	TRUE
e14	2015	08	04	19	21	f	20	r	14.112411447	1	94	1.35980076005	0.913435610876	right	visual	right	visual	target	voice	492.881198879	FALSE	FALSE	FALSE	FALSE	TRUE	0	FALSE	TRUE	TRUE
e14	2015	08	04	19	21	f	20	r	14.112411447	1	95	1.25955575705	1.31026148372	right	visual	left	tactile	catch	NA	NA	FALSE	FALSE	FALSE	FALSE	TRUE	0	FALSE	FALSE	TRUE
e14	2015	08	04	19	21	f	20	r	14.112411447	1	96	1.32204885106	0.807147959185	right	tactile	right	tactile	catch	NA	NA	FALSE	FALSE	FALSE	FALSE	TRUE	0	FALSE	TRUE	TRUE
e14	2015	08	04	19	21	f	20	r	14.112411447	1	97	1.64778723603	0.50304319477	right	tactile	left	visual	target	voice	637.216308969	FALSE	FALSE	FALSE	FALSE	TRUE	0	FALSE	FALSE	TRUE
e14	2015	08	04	19	21	f	20	r	14.112411447	1	98	2.74735327601	0.607181513993	left	visual	left	visual	target	voice	553.792917635	FALSE	FALSE	FALSE	FALSE	FALSE	0	FALSE	FALSE	TRUE
e14	2015	08	04	19	21	f	20	r	14.112411447	1	99	5.933256082	1.31416573406	left	visual	left	visual	target	voice	951.825698605	FALSE	FALSE	FALSE	FALSE	FALSE	0	FALSE	FALSE	TRUE
e14	2015	08	04	19	21	f	20	r	14.112411447	1	100	0.816491298028	0.97242081616	right	visual	right	visual	target	voice	NA	TRUE	FALSE	FALSE	FALSE	FALSE	0	FALSE	FALSE	FALSE
e14	2015	08	04	19	21	f	20	r	14.112411447	1	101	1.78015608306	0.633552348834	left	visual	right	tactile	target	voice	359.326944919	FALSE	FALSE	FALSE	FALSE	TRUE	0	FALSE	TRUE	TRUE
e14	2015	08	04	19	21	f	20	r	14.112411447	1	102	1.17961836699	0.880806189039	right	tactile	right	tactile	target	voice	783.405220718	FALSE	FALSE	FALSE	FALSE	TRUE	0	FALSE	FALSE	TRUE
e14	2015	08	04	19	21	f	20	r	14.112411447	1	103	0.74467202602	0.744406139295	left	tactile	right	visual	target	voice	NA	TRUE	FALSE	FALSE	FALSE	FALSE	0	FALSE	FALSE	FALSE
e14	2015	08	04	19	21	f	20	r	14.112411447	1	104	1.990435794	1.19908623421	right	visual	right	visual	target	voice	526.170964586	FALSE	FALSE	FALSE	FALSE	TRUE	0	FALSE	TRUE	TRUE
e14	2015	08	04	19	21	f	20	r	14.112411447	1	105	1.06948316097	1.45405505739	left	visual	right	tactile	target	voice	421.331246383	FALSE	FALSE	FALSE	FALSE	FALSE	0	FALSE	FALSE	TRUE
e14	2015	08	04	19	21	f	20	r	14.112411447	1	106	1.28093876503	0.66072453241	left	visual	right	tactile	target	voice	413.585964241	FALSE	FALSE	FALSE	FALSE	FALSE	0	FALSE	FALSE	TRUE
e14	2015	08	04	19	21	f	20	r	14.112411447	1	107	1.02473336807	0.933434318557	left	tactile	left	tactile	target	voice	444.048187113	FALSE	FALSE	FALSE	TRUE	TRUE	0	TRUE	TRUE	TRUE
e14	2015	08	04	19	21	f	20	r	14.112411447	1	108	2.41507227498	1.42810558231	left	visual	left	visual	target	voice	540.684952284	FALSE	FALSE	FALSE	FALSE	TRUE	0	FALSE	FALSE	TRUE
e14	2015	08	04	19	21	f	20	r	14.112411447	1	109	0.917426322005	0.900193009005	right	tactile	left	visual	target	voice	488.663652679	FALSE	FALSE	FALSE	FALSE	TRUE	0	FALSE	TRUE	TRUE
e14	2015	08	04	19	21	f	20	r	14.112411447	1	110	2.44176743191	0.570968172487	right	tactile	left	visual	target	voice	480.309106177	FALSE	FALSE	FALSE	FALSE	TRUE	0	FALSE	TRUE	TRUE
e14	2015	08	04	19	21	f	20	r	14.112411447	1	111	0.828912172001	0.69692411996	left	visual	right	tactile	target	voice	451.429757755	FALSE	FALSE	FALSE	TRUE	TRUE	0	FALSE	TRUE	TRUE
e14	2015	08	04	19	21	f	20	r	14.112411447	1	112	0.754503038013	0.945578826797	left	tactile	right	visual	target	voice	464.683636907	FALSE	FALSE	FALSE	FALSE	TRUE	0	FALSE	TRUE	TRUE
e14	2015	08	04	19	21	f	20	r	14.112411447	1	113	0.951388999005	0.71044734122	left	tactile	left	visual	target	voice	402.812989545	FALSE	FALSE	FALSE	FALSE	TRUE	0	FALSE	TRUE	TRUE
e14	2015	08	04	19	21	f	20	r	14.112411447	1	114	0.85552722495	1.24948546963	right	visual	right	visual	target	voice	425.973506994	FALSE	FALSE	FALSE	FALSE	TRUE	0	FALSE	TRUE	TRUE
e14	2015	08	04	19	21	f	20	r	14.112411447	1	115	6.27265387401	0.88598711805	right	visual	left	tactile	target	voice	433.000491699	FALSE	FALSE	FALSE	FALSE	TRUE	0	FALSE	TRUE	TRUE
e14	2015	08	04	19	21	f	20	r	14.112411447	1	116	0.937805136084	0.628800119226	right	visual	right	tactile	target	voice	688.461295445	FALSE	FALSE	FALSE	FALSE	TRUE	0	FALSE	TRUE	TRUE
e14	2015	08	04	19	21	f	20	r	14.112411447	1	117	3.81210442702	1.14789917694	right	visual	left	tactile	target	voice	419.049566844	FALSE	FALSE	FALSE	FALSE	TRUE	0	FALSE	TRUE	TRUE
e14	2015	08	04	19	21	f	20	r	14.112411447	1	118	5.65084587794	0.53095265144	right	visual	right	visual	catch	NA	NA	FALSE	FALSE	FALSE	FALSE	TRUE	0	FALSE	TRUE	TRUE
e14	2015	08	04	19	21	f	20	r	14.112411447	1	119	1.36381956004	1.06273123574	left	visual	right	visual	target	voice	487.104606931	FALSE	FALSE	FALSE	FALSE	TRUE	0	FALSE	TRUE	TRUE
e14	2015	08	04	19	21	f	20	r	14.112411447	1	120	3.67242406204	1.21671532598	right	tactile	right	visual	target	voice	403.869875707	FALSE	FALSE	FALSE	FALSE	TRUE	0	FALSE	TRUE	TRUE
e14	2015	08	04	19	21	f	20	r	9.55907931202	1	121	2.36440917291	0.60829707973	left	visual	left	visual	target	voice	622.944445	FALSE	FALSE	FALSE	FALSE	FALSE	0	FALSE	FALSE	TRUE
e14	2015	08	04	19	21	f	20	r	9.55907931202	1	122	1.08018896601	0.861443053727	left	tactile	right	visual	target	voice	374.507820001	FALSE	FALSE	FALSE	FALSE	TRUE	0	FALSE	TRUE	TRUE
e14	2015	08	04	19	21	f	20	r	9.55907931202	1	123	1.02370490495	0.729236216959	right	tactile	right	tactile	target	voice	510.061356821	FALSE	FALSE	FALSE	FALSE	TRUE	0	FALSE	TRUE	TRUE
e14	2015	08	04	19	21	f	20	r	9.55907931202	1	124	0.97604666499	1.01151104151	left	visual	left	visual	target	voice	406.201019185	FALSE	FALSE	FALSE	FALSE	TRUE	0	FALSE	TRUE	TRUE
e14	2015	08	04	19	21	f	20	r	9.55907931202	1	125	1.11337277491	1.15051407326	left	visual	right	tactile	target	voice	447.173069464	FALSE	FALSE	FALSE	FALSE	TRUE	0	FALSE	TRUE	TRUE
e14	2015	08	04	19	21	f	20	r	9.55907931202	1	126	0.882728390978	0.799603801267	right	tactile	left	visual	target	voice	487.725277431	FALSE	FALSE	FALSE	FALSE	TRUE	0	FALSE	TRUE	TRUE
e14	2015	08	04	19	21	f	20	r	9.55907931202	1	127	2.335532923	0.628136017305	left	tactile	right	tactile	target	voice	492.93296528	FALSE	FALSE	FALSE	FALSE	FALSE	0	FALSE	FALSE	TRUE
e14	2015	08	04	19	21	f	20	r	9.55907931202	1	128	2.69199753797	0.574097178856	right	tactile	right	tactile	target	voice	573.707349831	FALSE	FALSE	FALSE	FALSE	TRUE	0	FALSE	TRUE	TRUE
e14	2015	08	04	19	21	f	20	r	9.55907931202	1	129	2.88194959098	1.15255254234	left	visual	right	visual	target	voice	472.748169326	FALSE	FALSE	FALSE	FALSE	TRUE	0	FALSE	TRUE	TRUE
e14	2015	08	04	19	21	f	20	r	9.55907931202	1	130	2.94018790603	1.24001726376	right	tactile	right	visual	target	voice	463.761189836	FALSE	FALSE	FALSE	FALSE	TRUE	0	FALSE	TRUE	TRUE
e14	2015	08	04	19	21	f	20	r	9.55907931202	1	131	0.949434517999	0.999446313321	left	tactile	left	tactile	catch	NA	NA	FALSE	FALSE	FALSE	FALSE	TRUE	0	FALSE	FALSE	TRUE
e14	2015	08	04	19	21	f	20	r	9.55907931202	1	132	0.763582905056	1.26302905542	right	visual	left	visual	target	voice	NA	TRUE	FALSE	FALSE	FALSE	FALSE	0	FALSE	FALSE	FALSE
e14	2015	08	04	19	21	f	20	r	9.55907931202	1	133	6.39993803808	1.14336276782	right	tactile	right	tactile	target	NA	NA	FALSE	FALSE	FALSE	FALSE	TRUE	0	FALSE	FALSE	TRUE
e14	2015	08	04	19	21	f	20	r	9.55907931202	1	134	1.95328352798	1.35364052798	left	visual	left	tactile	target	voice	472.921852721	FALSE	FALSE	FALSE	FALSE	TRUE	0	FALSE	TRUE	TRUE
e14	2015	08	04	19	21	f	20	r	9.55907931202	1	135	1.02772143297	0.907962692003	right	visual	right	visual	target	voice	467.07901964	FALSE	FALSE	FALSE	FALSE	TRUE	0	FALSE	TRUE	TRUE
e14	2015	08	04	19	21	f	20	r	9.55907931202	1	136	0.978575740941	1.31793115071	left	visual	right	visual	target	voice	533.718921011	FALSE	FALSE	FALSE	FALSE	TRUE	0	FALSE	TRUE	TRUE
e14	2015	08	04	19	21	f	20	r	9.55907931202	1	137	0.864970928058	0.975432819873	left	tactile	right	tactile	catch	NA	NA	FALSE	FALSE	FALSE	FALSE	FALSE	0	FALSE	FALSE	TRUE
e14	2015	08	04	19	21	f	20	r	9.55907931202	1	138	7.03639619204	1.4736259004	right	tactile	left	visual	catch	NA	NA	FALSE	FALSE	FALSE	FALSE	TRUE	0	FALSE	TRUE	TRUE
e14	2015	08	04	19	21	f	20	r	9.55907931202	1	139	1.242310017	0.509763423361	right	tactile	left	tactile	target	voice	393.139839405	FALSE	FALSE	FALSE	FALSE	TRUE	0	FALSE	TRUE	TRUE
e14	2015	08	04	19	21	f	20	r	9.55907931202	1	140	0.917257445981	1.14609251973	left	tactile	left	tactile	target	voice	387.308357982	FALSE	FALSE	FALSE	FALSE	FALSE	0	FALSE	FALSE	TRUE
e14	2015	08	04	19	21	f	20	r	9.55907931202	1	141	0.866933441022	1.41348885329	right	visual	left	tactile	target	voice	391.359831556	FALSE	FALSE	FALSE	FALSE	TRUE	0	FALSE	FALSE	TRUE
e14	2015	08	04	19	21	f	20	r	9.55907931202	1	142	2.54034800606	0.71294633491	left	tactile	left	visual	target	voice	486.93692591	FALSE	FALSE	FALSE	FALSE	FALSE	0	FALSE	FALSE	TRUE
e14	2015	08	04	19	21	f	20	r	9.55907931202	1	143	0.783799347002	0.983224430883	left	tactile	right	tactile	target	voice	379.388655769	FALSE	FALSE	FALSE	FALSE	TRUE	0	FALSE	TRUE	TRUE
e14	2015	08	04	19	21	f	20	r	9.55907931202	1	144	1.04689024598	0.630263408054	right	visual	left	tactile	target	voice	308.592895628	FALSE	FALSE	FALSE	FALSE	TRUE	0	FALSE	TRUE	TRUE
e14	2015	08	04	19	21	f	20	r	9.55907931202	1	145	255.705776437	0.765022698264	left	tactile	left	visual	target	voice	NA	TRUE	FALSE	FALSE	FALSE	TRUE	0	FALSE	FALSE	FALSE
e14	2015	08	04	19	21	f	20	r	9.55907931202	1	146	2.91888630192	1.33429609268	right	visual	left	visual	target	voice	562.179560075	FALSE	FALSE	FALSE	FALSE	TRUE	0	FALSE	TRUE	TRUE
e14	2015	08	04	19	21	f	20	r	9.55907931202	1	147	1.52959365991	1.4171322134	left	tactile	right	visual	catch	NA	NA	FALSE	FALSE	FALSE	FALSE	TRUE	0	FALSE	TRUE	TRUE
e14	2015	08	04	19	21	f	20	r	9.55907931202	1	148	0.650867615012	0.765407991887	left	visual	right	visual	target	voice	NA	TRUE	FALSE	FALSE	FALSE	FALSE	0	FALSE	FALSE	FALSE
e14	2015	08	04	19	21	f	20	r	9.55907931202	1	149	1.69723857706	1.13270487334	left	tactile	left	visual	catch	NA	NA	FALSE	FALSE	FALSE	FALSE	TRUE	0	FALSE	TRUE	TRUE
e14	2015	08	04	19	21	f	20	r	9.55907931202	1	150	1.02056976606	0.826510317264	left	visual	right	visual	catch	NA	NA	FALSE	FALSE	FALSE	FALSE	TRUE	0	FALSE	FALSE	TRUE
e14	2015	08	04	19	21	f	20	r	9.55907931202	1	151	1.21957123606	0.967196983453	right	visual	right	visual	target	voice	605.85618834	FALSE	FALSE	FALSE	FALSE	TRUE	0	FALSE	TRUE	TRUE
e14	2015	08	04	19	21	f	20	r	9.55907931202	1	152	0.984444212052	0.701278570787	right	tactile	left	tactile	target	voice	397.416196996	FALSE	FALSE	FALSE	FALSE	TRUE	0	FALSE	TRUE	TRUE
e14	2015	08	04	19	21	f	20	r	9.55907931202	1	153	0.725955390953	0.638072138802	left	visual	left	visual	target	voice	417.306120973	FALSE	FALSE	FALSE	FALSE	FALSE	0	FALSE	FALSE	TRUE
e14	2015	08	04	19	21	f	20	r	9.55907931202	1	154	2.28864447097	1.12031171756	left	tactile	right	visual	target	voice	465.987226227	FALSE	FALSE	FALSE	FALSE	FALSE	0	FALSE	FALSE	TRUE
e14	2015	08	04	19	21	f	20	r	9.55907931202	1	155	0.624711981975	1.46476109763	right	visual	left	tactile	target	voice	385.873137042	FALSE	FALSE	FALSE	FALSE	TRUE	0	FALSE	TRUE	TRUE
e14	2015	08	04	19	21	f	20	r	9.55907931202	1	156	0.717675145017	0.85741025695	left	visual	right	visual	target	voice	389.206510736	FALSE	FALSE	FALSE	FALSE	TRUE	0	FALSE	FALSE	TRUE
e14	2015	08	04	19	21	f	20	r	9.55907931202	1	157	0.946578801027	1.38524723227	right	visual	right	tactile	target	voice	388.798608445	FALSE	FALSE	FALSE	FALSE	TRUE	0	FALSE	TRUE	TRUE
e14	2015	08	04	19	21	f	20	r	9.55907931202	1	158	1.061465409	1.09631097925	left	visual	left	tactile	target	voice	349.257272435	FALSE	FALSE	FALSE	FALSE	TRUE	0	FALSE	TRUE	TRUE
e14	2015	08	04	19	21	f	20	r	9.55907931202	1	159	0.786182155949	0.532663500937	right	tactile	left	visual	target	voice	421.242056764	FALSE	FALSE	FALSE	FALSE	TRUE	0	FALSE	TRUE	TRUE
e14	2015	08	04	19	21	f	20	r	9.55907931202	1	160	1.09665105201	1.23877763283	right	tactile	right	visual	target	voice	413.302679895	FALSE	FALSE	FALSE	FALSE	TRUE	0	FALSE	TRUE	TRUE
e14	2015	08	04	19	21	f	20	r	17.532383428	2	1	1.31616665202	0.725507807744	left	visual	right	tactile	target	voice	458.65153498	FALSE	FALSE	FALSE	FALSE	TRUE	0	FALSE	TRUE	TRUE
e14	2015	08	04	19	21	f	20	r	17.532383428	2	2	0.424464815995	1.30669850442	left	visual	left	visual	target	voice	NA	TRUE	FALSE	FALSE	FALSE	FALSE	0	FALSE	FALSE	FALSE
e14	2015	08	04	19	21	f	20	r	17.532383428	2	3	0.998018124956	1.01357247146	left	tactile	left	visual	catch	NA	NA	FALSE	FALSE	FALSE	FALSE	TRUE	0	FALSE	TRUE	TRUE
e14	2015	08	04	19	21	f	20	r	17.532383428	2	4	0.744000355015	1.04554826511	left	tactile	right	visual	target	voice	456.397191621	FALSE	FALSE	FALSE	FALSE	FALSE	0	FALSE	FALSE	TRUE
e14	2015	08	04	19	21	f	20	r	17.532383428	2	5	0.770348701975	0.562792223299	left	visual	right	tactile	target	voice	427.388073411	FALSE	FALSE	FALSE	FALSE	TRUE	0	FALSE	TRUE	TRUE
e14	2015	08	04	19	21	f	20	r	17.532383428	2	6	0.791057811934	0.522944807444	left	tactile	right	tactile	target	voice	460.453887354	FALSE	FALSE	FALSE	FALSE	TRUE	0	FALSE	FALSE	TRUE
e14	2015	08	04	19	21	f	20	r	17.532383428	2	7	0.659761120914	1.08283053795	left	visual	left	visual	target	voice	465.23063269	FALSE	FALSE	FALSE	FALSE	TRUE	0	FALSE	TRUE	TRUE
e14	2015	08	04	19	21	f	20	r	17.532383428	2	8	0.68131501507	1.06269241055	right	tactile	right	tactile	target	voice	472.903568181	FALSE	FALSE	FALSE	FALSE	TRUE	0	FALSE	TRUE	TRUE
e14	2015	08	04	19	21	f	20	r	17.532383428	2	9	0.761681198957	1.30687997843	right	visual	left	tactile	target	voice	388.848316274	FALSE	FALSE	FALSE	FALSE	TRUE	0	FALSE	TRUE	TRUE
e14	2015	08	04	19	21	f	20	r	17.532383428	2	10	0.651452974067	0.55283888915	left	visual	left	visual	target	voice	546.363494475	FALSE	FALSE	FALSE	FALSE	FALSE	0	FALSE	FALSE	TRUE
e14	2015	08	04	19	21	f	20	r	17.532383428	2	11	0.85306160897	1.27745119262	left	tactile	right	tactile	catch	NA	NA	FALSE	FALSE	FALSE	FALSE	TRUE	0	FALSE	TRUE	TRUE
e14	2015	08	04	19	21	f	20	r	17.532383428	2	12	0.752183904988	0.531435729998	right	visual	right	visual	catch	NA	NA	FALSE	FALSE	FALSE	FALSE	TRUE	0	FALSE	TRUE	TRUE
e14	2015	08	04	19	21	f	20	r	17.532383428	2	13	0.49592107092	1.26452151855	left	visual	left	tactile	target	voice	NA	TRUE	FALSE	FALSE	FALSE	FALSE	0	FALSE	FALSE	FALSE
e14	2015	08	04	19	21	f	20	r	17.532383428	2	14	5.12373053504	1.05686343909	left	tactile	left	tactile	catch	NA	NA	FALSE	FALSE	FALSE	FALSE	TRUE	0	FALSE	FALSE	TRUE
e14	2015	08	04	19	21	f	20	r	17.532383428	2	15	0.69961651403	0.541976331405	right	visual	left	visual	target	voice	466.902403277	FALSE	FALSE	FALSE	FALSE	TRUE	0	FALSE	FALSE	TRUE
e14	2015	08	04	19	21	f	20	r	17.532383428	2	16	0.722774015972	0.718791529817	right	visual	right	tactile	target	voice	361.098797992	FALSE	FALSE	FALSE	FALSE	TRUE	0	FALSE	TRUE	TRUE
e14	2015	08	04	19	21	f	20	r	17.532383428	2	17	2.45507495408	1.27025442921	left	visual	right	tactile	target	voice	409.171612468	FALSE	FALSE	FALSE	FALSE	TRUE	0	FALSE	FALSE	TRUE
e14	2015	08	04	19	21	f	20	r	17.532383428	2	18	5.01602014096	1.35822727305	right	visual	left	visual	target	voice	489.935803576	FALSE	FALSE	FALSE	FALSE	TRUE	0	FALSE	TRUE	TRUE
e14	2015	08	04	19	21	f	20	r	17.532383428	2	19	0.529328580014	1.02231668321	right	tactile	left	tactile	target	voice	397.358624614	FALSE	FALSE	FALSE	FALSE	TRUE	0	FALSE	TRUE	TRUE
e14	2015	08	04	19	21	f	20	r	17.532383428	2	20	0.68610898091	0.514841314707	right	visual	right	visual	target	voice	436.272621038	FALSE	FALSE	FALSE	FALSE	TRUE	0	FALSE	TRUE	TRUE
e14	2015	08	04	19	21	f	20	r	17.532383428	2	21	3.18943825911	1.27036008355	left	visual	right	tactile	target	voice	419.835435227	FALSE	FALSE	FALSE	FALSE	TRUE	0	FALSE	TRUE	TRUE
e14	2015	08	04	19	21	f	20	r	17.532383428	2	22	0.754375854973	1.0757130575	right	tactile	right	visual	target	voice	502.931477153	FALSE	FALSE	FALSE	FALSE	TRUE	0	FALSE	TRUE	TRUE
e14	2015	08	04	19	21	f	20	r	17.532383428	2	23	0.705241034972	1.45182948339	left	visual	left	visual	catch	NA	NA	FALSE	FALSE	FALSE	FALSE	TRUE	0	FALSE	FALSE	TRUE
e14	2015	08	04	19	21	f	20	r	17.532383428	2	24	0.993745415006	1.49848438294	right	tactile	right	tactile	target	voice	447.511412785	FALSE	FALSE	FALSE	FALSE	TRUE	0	FALSE	TRUE	TRUE
e14	2015	08	04	19	21	f	20	r	17.532383428	2	25	0.751959405956	0.655049411698	right	visual	right	visual	target	voice	558.180924039	FALSE	FALSE	FALSE	TRUE	TRUE	0	TRUE	TRUE	TRUE
e14	2015	08	04	19	21	f	20	r	17.532383428	2	26	0.488273978001	0.950692696315	right	tactile	right	tactile	target	voice	396.895519458	FALSE	FALSE	FALSE	FALSE	TRUE	0	FALSE	TRUE	TRUE
e14	2015	08	04	19	21	f	20	r	17.532383428	2	27	0.876988340984	1.42203331403	right	visual	right	tactile	catch	NA	NA	FALSE	FALSE	FALSE	FALSE	TRUE	0	FALSE	TRUE	TRUE
e14	2015	08	04	19	21	f	20	r	17.532383428	2	28	0.973232257995	0.766106651115	left	visual	right	tactile	target	voice	498.041101615	FALSE	FALSE	FALSE	FALSE	TRUE	0	FALSE	TRUE	TRUE
e14	2015	08	04	19	21	f	20	r	17.532383428	2	29	0.96254576603	0.878022479355	left	visual	right	visual	target	voice	406.013290398	FALSE	FALSE	FALSE	FALSE	TRUE	0	FALSE	TRUE	TRUE
e14	2015	08	04	19	21	f	20	r	17.532383428	2	30	0.719446538016	1.04377842556	left	visual	left	tactile	catch	NA	NA	FALSE	FALSE	FALSE	FALSE	FALSE	0	FALSE	FALSE	TRUE
e14	2015	08	04	19	21	f	20	r	17.532383428	2	31	2.87762811396	0.92983943916	right	tactile	left	visual	target	voice	439.24176658	FALSE	FALSE	FALSE	FALSE	TRUE	0	FALSE	TRUE	TRUE
e14	2015	08	04	19	21	f	20	r	17.532383428	2	32	0.844360555056	0.575680518797	right	tactile	left	visual	target	voice	419.632965	FALSE	FALSE	FALSE	FALSE	TRUE	0	FALSE	TRUE	TRUE
e14	2015	08	04	19	21	f	20	r	17.532383428	2	33	0.883189935004	1.01147310107	left	tactile	left	visual	target	voice	412.813116563	FALSE	FALSE	FALSE	FALSE	TRUE	0	FALSE	FALSE	TRUE
e14	2015	08	04	19	21	f	20	r	17.532383428	2	34	0.540372348973	0.78939862283	left	tactile	left	tactile	target	voice	427.932457998	FALSE	FALSE	FALSE	FALSE	TRUE	0	FALSE	TRUE	TRUE
e14	2015	08	04	19	21	f	20	r	17.532383428	2	35	2.90702163207	0.957882678992	right	visual	right	tactile	target	voice	423.529243795	FALSE	FALSE	FALSE	FALSE	TRUE	0	FALSE	FALSE	TRUE
e14	2015	08	04	19	21	f	20	r	17.532383428	2	36	0.747266298044	1.37452730306	left	visual	right	tactile	target	voice	312.456445652	FALSE	FALSE	FALSE	FALSE	TRUE	0	FALSE	TRUE	TRUE
e14	2015	08	04	19	21	f	20	r	17.532383428	2	37	1.07484632893	1.48567819771	left	tactile	left	tactile	target	voice	330.89468698	FALSE	FALSE	FALSE	FALSE	TRUE	0	FALSE	TRUE	TRUE
e14	2015	08	04	19	21	f	20	r	17.532383428	2	38	0.965488540009	1.30839177227	right	tactile	left	tactile	target	voice	361.212565447	FALSE	FALSE	FALSE	FALSE	TRUE	0	FALSE	TRUE	TRUE
e14	2015	08	04	19	21	f	20	r	17.532383428	2	39	0.760176469921	0.838185643041	left	visual	right	visual	target	voice	633.558888687	FALSE	FALSE	FALSE	FALSE	TRUE	0	FALSE	TRUE	TRUE
e14	2015	08	04	19	21	f	20	r	17.532383428	2	40	0.981020629057	0.617251684872	left	tactile	left	visual	target	voice	302.733181859	FALSE	FALSE	FALSE	FALSE	TRUE	0	FALSE	FALSE	TRUE
e14	2015	08	04	19	21	f	20	r	7.50202378305	2	41	2.02567424299	1.40127952152	left	visual	left	visual	target	voice	565.944649279	FALSE	FALSE	FALSE	FALSE	TRUE	0	FALSE	FALSE	TRUE
e14	2015	08	04	19	21	f	20	r	7.50202378305	2	42	0.660264699021	0.569362611191	left	tactile	right	tactile	target	voice	310.982403578	FALSE	FALSE	FALSE	FALSE	TRUE	0	FALSE	TRUE	TRUE
e14	2015	08	04	19	21	f	20	r	7.50202378305	2	43	0.557623144938	1.17812821436	left	visual	left	tactile	target	voice	299.089237349	FALSE	FALSE	FALSE	FALSE	TRUE	0	FALSE	TRUE	TRUE
e14	2015	08	04	19	21	f	20	r	7.50202378305	2	44	0.800584912999	1.44118587921	right	visual	left	tactile	catch	NA	NA	FALSE	FALSE	FALSE	FALSE	TRUE	0	FALSE	TRUE	TRUE
e14	2015	08	04	19	21	f	20	r	7.50202378305	2	45	2.76114535402	0.654021125926	right	visual	right	tactile	target	voice	375.252858852	FALSE	FALSE	FALSE	FALSE	TRUE	0	FALSE	TRUE	TRUE
e14	2015	08	04	19	21	f	20	r	7.50202378305	2	46	1.02533626894	1.43155881962	right	visual	left	tactile	target	voice	470.253659063	FALSE	FALSE	FALSE	FALSE	TRUE	0	FALSE	TRUE	TRUE
e14	2015	08	04	19	21	f	20	r	7.50202378305	2	47	1.050126496	0.997348530322	left	tactile	right	visual	target	voice	542.864679359	FALSE	FALSE	FALSE	FALSE	TRUE	0	FALSE	FALSE	TRUE
e14	2015	08	04	19	21	f	20	r	7.50202378305	2	48	0.571219668956	0.904978447991	left	visual	right	tactile	catch	NA	NA	FALSE	FALSE	FALSE	FALSE	TRUE	0	FALSE	TRUE	TRUE
e14	2015	08	04	19	21	f	20	r	7.50202378305	2	49	3.07163184497	1.44798301898	left	tactile	right	visual	catch	NA	NA	FALSE	FALSE	FALSE	FALSE	TRUE	0	FALSE	TRUE	TRUE
e14	2015	08	04	19	21	f	20	r	7.50202378305	2	50	3.19762716908	0.632470080264	left	visual	right	visual	target	voice	400.826916448	FALSE	FALSE	FALSE	FALSE	TRUE	0	FALSE	TRUE	TRUE
e14	2015	08	04	19	21	f	20	r	7.50202378305	2	51	0.665668895934	1.45447778142	left	tactile	left	tactile	target	voice	494.401866337	FALSE	FALSE	FALSE	FALSE	TRUE	0	FALSE	TRUE	TRUE
e14	2015	08	04	19	21	f	20	r	7.50202378305	2	52	0.817753238953	1.26917614573	right	visual	right	visual	target	voice	531.782845967	FALSE	FALSE	FALSE	FALSE	TRUE	0	FALSE	TRUE	TRUE
e14	2015	08	04	19	21	f	20	r	7.50202378305	2	53	8.58950467699	0.923146956204	left	tactile	left	visual	target	voice	451.15949749	FALSE	FALSE	FALSE	FALSE	TRUE	0	FALSE	TRUE	TRUE
e14	2015	08	04	19	21	f	20	r	7.50202378305	2	54	0.60900768009	1.4145431218	left	tactile	right	tactile	target	voice	395.450182841	FALSE	FALSE	FALSE	FALSE	TRUE	0	FALSE	TRUE	TRUE
e14	2015	08	04	19	21	f	20	r	7.50202378305	2	55	2.59290420101	1.0840613226	right	tactile	left	tactile	target	voice	416.19726317	FALSE	FALSE	FALSE	FALSE	TRUE	0	FALSE	TRUE	TRUE
e14	2015	08	04	19	21	f	20	r	7.50202378305	2	56	4.03680118301	0.617226314749	left	tactile	left	visual	target	voice	451.874603052	FALSE	FALSE	FALSE	FALSE	TRUE	0	FALSE	TRUE	TRUE
e14	2015	08	04	19	21	f	20	r	7.50202378305	2	57	0.703553188941	1.07533833473	right	visual	left	tactile	target	voice	328.596706968	FALSE	FALSE	FALSE	FALSE	TRUE	0	FALSE	TRUE	TRUE
e14	2015	08	04	19	21	f	20	r	7.50202378305	2	58	0.658701210981	0.918784945776	left	tactile	left	tactile	target	voice	355.185579974	FALSE	FALSE	FALSE	TRUE	TRUE	0	FALSE	TRUE	TRUE
e14	2015	08	04	19	21	f	20	r	7.50202378305	2	59	5.16323202197	1.40537274882	left	tactile	right	tactile	target	voice	363.295252901	FALSE	FALSE	FALSE	FALSE	TRUE	0	FALSE	TRUE	TRUE
e14	2015	08	04	19	21	f	20	r	7.50202378305	2	60	2.52896685095	1.37322706643	left	tactile	left	tactile	target	voice	478.588587255	FALSE	FALSE	FALSE	FALSE	TRUE	0	FALSE	TRUE	TRUE
e14	2015	08	04	19	21	f	20	r	7.50202378305	2	61	28.2302398069	1.3622456775	right	visual	right	tactile	target	voice	485.495019238	FALSE	FALSE	FALSE	FALSE	FALSE	0	FALSE	FALSE	TRUE
e14	2015	08	04	19	21	f	20	r	7.50202378305	2	62	0.856402146979	0.904202992587	left	visual	right	visual	target	voice	458.218715154	FALSE	FALSE	FALSE	TRUE	TRUE	0	TRUE	TRUE	TRUE
e14	2015	08	04	19	21	f	20	r	7.50202378305	2	63	4.67582440202	0.521151651455	right	visual	left	tactile	target	voice	464.160967153	FALSE	FALSE	FALSE	FALSE	TRUE	0	FALSE	TRUE	TRUE
e14	2015	08	04	19	21	f	20	r	7.50202378305	2	64	0.818604334025	0.711222872192	right	tactile	right	visual	target	voice	406.604397576	FALSE	FALSE	FALSE	FALSE	TRUE	0	FALSE	TRUE	TRUE
e14	2015	08	04	19	21	f	20	r	7.50202378305	2	65	0.678093619994	1.21127817396	left	visual	left	visual	target	voice	483.250546735	FALSE	FALSE	FALSE	FALSE	FALSE	0	FALSE	FALSE	TRUE
e14	2015	08	04	19	21	f	20	r	7.50202378305	2	66	2.34232250799	1.35994910696	right	visual	right	tactile	target	voice	405.280308798	FALSE	FALSE	FALSE	FALSE	TRUE	0	FALSE	TRUE	TRUE
e14	2015	08	04	19	21	f	20	r	7.50202378305	2	67	3.04577317496	0.842469808842	left	tactile	right	visual	target	voice	453.289048746	FALSE	FALSE	FALSE	FALSE	FALSE	0	FALSE	FALSE	TRUE
e14	2015	08	04	19	21	f	20	r	7.50202378305	2	68	3.54197072505	1.44873551957	right	visual	left	visual	target	voice	414.063850185	FALSE	FALSE	FALSE	FALSE	TRUE	0	FALSE	TRUE	TRUE
e14	2015	08	04	19	21	f	20	r	7.50202378305	2	69	0.577964691911	1.08914075678	left	tactile	right	visual	target	voice	438.117975951	FALSE	FALSE	FALSE	FALSE	TRUE	0	FALSE	TRUE	TRUE
e14	2015	08	04	19	21	f	20	r	7.50202378305	2	70	9.30019654799	0.518965916636	right	visual	left	visual	target	voice	432.798352209	FALSE	FALSE	FALSE	FALSE	TRUE	0	FALSE	TRUE	TRUE
e14	2015	08	04	19	21	f	20	r	7.50202378305	2	71	55.105100541	1.0588960707	right	tactile	left	visual	target	voice	NA	TRUE	FALSE	FALSE	FALSE	FALSE	0	FALSE	FALSE	FALSE
e14	2015	08	04	19	21	f	20	r	7.50202378305	2	72	3.42080774601	0.745470724889	left	visual	left	visual	target	voice	495.559234871	FALSE	FALSE	FALSE	TRUE	TRUE	0	TRUE	TRUE	TRUE
e14	2015	08	04	19	21	f	20	r	7.50202378305	2	73	3.39991333603	1.34636248904	right	visual	right	visual	target	voice	476.42837069	FALSE	FALSE	FALSE	FALSE	TRUE	0	FALSE	TRUE	TRUE
e14	2015	08	04	19	21	f	20	r	7.50202378305	2	74	0.62976418098	1.1638371964	right	tactile	right	visual	target	voice	397.342221346	FALSE	FALSE	FALSE	FALSE	TRUE	0	FALSE	TRUE	TRUE
e14	2015	08	04	19	21	f	20	r	7.50202378305	2	75	0.596377682989	0.824770580549	left	visual	left	tactile	target	voice	421.591492137	FALSE	FALSE	FALSE	FALSE	TRUE	0	FALSE	TRUE	TRUE
e14	2015	08	04	19	21	f	20	r	7.50202378305	2	76	0.597012131941	1.02616525132	right	visual	right	visual	target	voice	434.9463525	FALSE	FALSE	FALSE	FALSE	TRUE	0	FALSE	TRUE	TRUE
e14	2015	08	04	19	21	f	20	r	7.50202378305	2	77	0.544809170999	0.702656317719	left	tactile	left	visual	target	voice	430.023274967	FALSE	FALSE	FALSE	FALSE	TRUE	0	FALSE	TRUE	TRUE
e14	2015	08	04	19	21	f	20	r	7.50202378305	2	78	0.601187139982	0.822673706515	right	tactile	right	tactile	target	voice	410.643200157	FALSE	FALSE	FALSE	FALSE	TRUE	0	FALSE	TRUE	TRUE
e14	2015	08	04	19	21	f	20	r	7.50202378305	2	79	0.678820551024	0.844720035205	right	visual	right	tactile	target	voice	404.931328492	FALSE	FALSE	FALSE	FALSE	TRUE	0	FALSE	TRUE	TRUE
e14	2015	08	04	19	21	f	20	r	7.50202378305	2	80	0.607922974043	0.693083698339	left	visual	left	visual	target	voice	425.732588279	FALSE	FALSE	FALSE	FALSE	TRUE	0	FALSE	TRUE	TRUE
e14	2015	08	04	19	21	f	20	r	8.13863356796	2	81	4.33324119297	0.661294999474	left	visual	left	tactile	target	voice	418.466533301	FALSE	FALSE	FALSE	FALSE	TRUE	0	FALSE	TRUE	TRUE
e14	2015	08	04	19	21	f	20	r	8.13863356796	2	82	0.768603981938	1.02254581337	left	visual	right	visual	target	voice	491.188763408	FALSE	FALSE	FALSE	FALSE	TRUE	0	FALSE	TRUE	TRUE
e14	2015	08	04	19	21	f	20	r	8.13863356796	2	83	0.76644729299	0.892899896696	right	visual	left	visual	target	voice	361.239520018	FALSE	FALSE	FALSE	FALSE	TRUE	0	FALSE	TRUE	TRUE
e14	2015	08	04	19	21	f	20	r	8.13863356796	2	84	0.81878146599	0.91997345533	left	tactile	left	tactile	target	voice	442.618091358	FALSE	FALSE	FALSE	FALSE	TRUE	0	FALSE	TRUE	TRUE
e14	2015	08	04	19	21	f	20	r	8.13863356796	2	85	0.862162617967	1.28380879455	right	tactile	right	tactile	target	voice	476.016066154	FALSE	FALSE	FALSE	FALSE	TRUE	0	FALSE	TRUE	TRUE
e14	2015	08	04	19	21	f	20	r	8.13863356796	2	86	0.723670554929	0.916613042088	left	visual	left	tactile	target	voice	370.680993656	FALSE	FALSE	FALSE	FALSE	TRUE	0	FALSE	TRUE	TRUE
e14	2015	08	04	19	21	f	20	r	8.13863356796	2	87	0.738404484	0.951952229444	right	tactile	left	tactile	target	voice	394.671445247	FALSE	FALSE	FALSE	FALSE	FALSE	0	FALSE	FALSE	TRUE
e14	2015	08	04	19	21	f	20	r	8.13863356796	2	88	0.802200956037	1.31767242267	right	tactile	left	tactile	target	voice	505.048598046	FALSE	FALSE	FALSE	FALSE	TRUE	0	FALSE	TRUE	TRUE
e14	2015	08	04	19	21	f	20	r	8.13863356796	2	89	0.7609544429	0.926872889411	right	tactile	right	tactile	target	voice	508.460983285	FALSE	FALSE	FALSE	FALSE	TRUE	0	FALSE	TRUE	TRUE
e14	2015	08	04	19	21	f	20	r	8.13863356796	2	90	0.585141788004	1.29094373257	left	visual	right	tactile	target	voice	505.334261106	FALSE	FALSE	FALSE	TRUE	TRUE	0	FALSE	TRUE	TRUE
e14	2015	08	04	19	21	f	20	r	8.13863356796	2	91	0.546985493042	1.33203783033	left	visual	left	tactile	target	voice	469.778490253	FALSE	FALSE	FALSE	FALSE	TRUE	0	FALSE	TRUE	TRUE
e14	2015	08	04	19	21	f	20	r	8.13863356796	2	92	0.887120575993	1.29792019397	right	visual	left	tactile	target	voice	395.803757827	FALSE	FALSE	FALSE	FALSE	TRUE	0	FALSE	TRUE	TRUE
e14	2015	08	04	19	21	f	20	r	8.13863356796	2	93	0.774137160042	0.922341837665	right	tactile	right	visual	target	voice	711.28329006	FALSE	FALSE	FALSE	FALSE	TRUE	0	FALSE	TRUE	TRUE
e14	2015	08	04	19	21	f	20	r	8.13863356796	2	94	3.24700552109	1.22317872263	left	visual	right	visual	target	voice	425.053543062	FALSE	FALSE	FALSE	FALSE	TRUE	0	FALSE	TRUE	TRUE
e14	2015	08	04	19	21	f	20	r	8.13863356796	2	95	0.613111429033	1.18172564146	left	visual	left	tactile	target	voice	385.483289254	FALSE	FALSE	FALSE	FALSE	TRUE	0	FALSE	TRUE	TRUE
e14	2015	08	04	19	21	f	20	r	8.13863356796	2	96	0.762789367	0.853762704274	right	visual	left	visual	catch	NA	NA	FALSE	FALSE	FALSE	FALSE	TRUE	0	FALSE	TRUE	TRUE
e14	2015	08	04	19	21	f	20	r	8.13863356796	2	97	1.05894436303	0.540470120901	right	tactile	left	tactile	target	voice	389.951367979	FALSE	FALSE	FALSE	FALSE	TRUE	0	FALSE	TRUE	TRUE
e14	2015	08	04	19	21	f	20	r	8.13863356796	2	98	2.16389199602	0.611373974179	right	visual	left	tactile	target	voice	467.543636565	FALSE	FALSE	FALSE	FALSE	TRUE	0	FALSE	TRUE	TRUE
e14	2015	08	04	19	21	f	20	r	8.13863356796	2	99	0.781697586994	1.272648715	right	tactile	left	tactile	catch	NA	NA	FALSE	FALSE	FALSE	FALSE	TRUE	0	FALSE	TRUE	TRUE
e14	2015	08	04	19	21	f	20	r	8.13863356796	2	100	0.817727367044	1.45243044086	right	tactile	left	visual	target	voice	522.530506947	FALSE	FALSE	FALSE	FALSE	TRUE	0	FALSE	TRUE	TRUE
e14	2015	08	04	19	21	f	20	r	8.13863356796	2	101	0.630884047016	1.40872813838	left	tactile	right	visual	target	voice	828.687353292	FALSE	FALSE	FALSE	FALSE	TRUE	0	FALSE	TRUE	TRUE
e14	2015	08	04	19	21	f	20	r	8.13863356796	2	102	1.055609409	1.4969997095	right	tactile	left	visual	target	voice	424.396011163	FALSE	FALSE	FALSE	FALSE	TRUE	0	FALSE	TRUE	TRUE
e14	2015	08	04	19	21	f	20	r	8.13863356796	2	103	0.84179235599	0.503152541797	right	visual	left	visual	target	voice	423.78168297	FALSE	FALSE	FALSE	FALSE	TRUE	0	FALSE	TRUE	TRUE
e14	2015	08	04	19	21	f	20	r	8.13863356796	2	104	2.22973538097	0.678127595355	left	tactile	right	visual	target	voice	320.652590366	FALSE	FALSE	FALSE	FALSE	TRUE	0	FALSE	TRUE	TRUE
e14	2015	08	04	19	21	f	20	r	8.13863356796	2	105	0.814362750039	0.8543312102	right	visual	right	tactile	target	voice	495.18018146	FALSE	FALSE	FALSE	FALSE	TRUE	0	FALSE	TRUE	TRUE
e14	2015	08	04	19	21	f	20	r	8.13863356796	2	106	0.879092333955	1.19455574396	left	visual	left	visual	target	voice	365.389572806	FALSE	FALSE	FALSE	FALSE	TRUE	0	FALSE	TRUE	TRUE
e14	2015	08	04	19	21	f	20	r	8.13863356796	2	107	0.8071492319	1.47675865073	right	visual	right	visual	target	voice	329.174482962	FALSE	FALSE	FALSE	FALSE	FALSE	0	FALSE	FALSE	TRUE
e14	2015	08	04	19	21	f	20	r	8.13863356796	2	108	1.076939138	1.15824699663	right	tactile	left	visual	target	voice	411.422440084	FALSE	FALSE	FALSE	FALSE	TRUE	0	FALSE	TRUE	TRUE
e14	2015	08	04	19	21	f	20	r	8.13863356796	2	109	0.490102217998	0.915146816784	right	visual	left	tactile	target	voice	NA	TRUE	FALSE	FALSE	FALSE	FALSE	0	FALSE	FALSE	FALSE
e14	2015	08	04	19	21	f	20	r	8.13863356796	2	110	1.22736174299	0.804970622371	left	tactile	right	visual	target	voice	420.665089274	FALSE	FALSE	FALSE	FALSE	TRUE	0	FALSE	TRUE	TRUE
e14	2015	08	04	19	21	f	20	r	8.13863356796	2	111	0.751134195947	1.14915485373	right	tactile	right	visual	target	voice	472.070210963	FALSE	FALSE	FALSE	FALSE	TRUE	0	FALSE	TRUE	TRUE
e14	2015	08	04	19	21	f	20	r	8.13863356796	2	112	0.825250086957	0.976648896918	right	tactile	left	visual	target	voice	403.626360814	FALSE	FALSE	FALSE	FALSE	TRUE	0	FALSE	TRUE	TRUE
e14	2015	08	04	19	21	f	20	r	8.13863356796	2	113	0.543999725953	1.44474096061	left	tactile	left	visual	target	voice	415.805855184	FALSE	FALSE	FALSE	TRUE	TRUE	0	TRUE	TRUE	TRUE
e14	2015	08	04	19	21	f	20	r	8.13863356796	2	114	2.35554221098	0.887668922203	right	visual	left	visual	target	voice	467.610136489	FALSE	FALSE	FALSE	FALSE	TRUE	0	FALSE	TRUE	TRUE
e14	2015	08	04	19	21	f	20	r	8.13863356796	2	115	0.787182705011	0.945291485524	left	tactile	right	tactile	target	voice	401.158858207	FALSE	FALSE	FALSE	FALSE	TRUE	0	FALSE	TRUE	TRUE
e14	2015	08	04	19	21	f	20	r	8.13863356796	2	116	3.04450403503	0.844037473585	left	tactile	right	visual	target	voice	404.285282129	FALSE	FALSE	FALSE	FALSE	TRUE	0	FALSE	TRUE	TRUE
e14	2015	08	04	19	21	f	20	r	8.13863356796	2	117	0.853000514908	0.905978795362	left	tactile	right	tactile	target	voice	482.553347363	FALSE	FALSE	FALSE	TRUE	TRUE	0	TRUE	TRUE	TRUE
e14	2015	08	04	19	21	f	20	r	8.13863356796	2	118	0.893794568954	0.903305268151	right	tactile	right	visual	target	voice	407.551615615	FALSE	FALSE	FALSE	TRUE	TRUE	0	TRUE	TRUE	TRUE
e14	2015	08	04	19	21	f	20	r	8.13863356796	2	119	2.88050535601	0.766725620675	left	visual	left	tactile	target	voice	414.302584948	FALSE	FALSE	FALSE	FALSE	TRUE	0	FALSE	TRUE	TRUE
e14	2015	08	04	19	21	f	20	r	8.13863356796	2	120	0.746593298041	0.785292741418	right	tactile	right	tactile	target	voice	400.659233332	FALSE	FALSE	FALSE	FALSE	TRUE	0	FALSE	TRUE	TRUE
e14	2015	08	04	19	21	f	20	r	10.229343052	2	121	0.704742865055	1.30092148406	right	tactile	right	tactile	catch	NA	NA	FALSE	FALSE	FALSE	FALSE	TRUE	0	FALSE	TRUE	TRUE
e14	2015	08	04	19	21	f	20	r	10.229343052	2	122	0.961284785997	1.27928067267	right	visual	right	visual	target	voice	540.651843068	FALSE	FALSE	FALSE	FALSE	TRUE	0	FALSE	TRUE	TRUE
e14	2015	08	04	19	21	f	20	r	10.229343052	2	123	0.68045955	1.07382779179	right	tactile	right	visual	target	voice	428.291479941	FALSE	FALSE	FALSE	FALSE	TRUE	0	FALSE	TRUE	TRUE
e14	2015	08	04	19	21	f	20	r	10.229343052	2	124	1.00647409901	1.20628566969	right	visual	right	visual	target	voice	458.649397013	FALSE	FALSE	FALSE	FALSE	FALSE	0	FALSE	FALSE	TRUE
e14	2015	08	04	19	21	f	20	r	10.229343052	2	125	0.641354623018	0.606895149221	right	visual	left	tactile	target	voice	463.481559418	FALSE	FALSE	FALSE	FALSE	TRUE	0	FALSE	TRUE	TRUE
e14	2015	08	04	19	21	f	20	r	10.229343052	2	126	0.495527779916	0.753104590189	right	tactile	right	tactile	target	voice	NA	TRUE	FALSE	FALSE	FALSE	FALSE	0	FALSE	FALSE	FALSE
e14	2015	08	04	19	21	f	20	r	10.229343052	2	127	1.86709392199	0.693239043441	left	visual	right	visual	target	voice	366.454559262	FALSE	FALSE	FALSE	FALSE	TRUE	0	FALSE	TRUE	TRUE
e14	2015	08	04	19	21	f	20	r	10.229343052	2	128	0.784319386003	1.16211840958	right	tactile	left	visual	target	voice	311.320475186	FALSE	FALSE	FALSE	FALSE	TRUE	0	FALSE	TRUE	TRUE
e14	2015	08	04	19	21	f	20	r	10.229343052	2	129	0.40468829195	0.776175689373	right	tactile	left	tactile	target	voice	NA	TRUE	FALSE	FALSE	FALSE	TRUE	0	FALSE	FALSE	FALSE
e14	2015	08	04	19	21	f	20	r	10.229343052	2	130	1.42997401301	1.2453963292	right	visual	left	tactile	target	voice	372.468313552	FALSE	FALSE	FALSE	FALSE	TRUE	0	FALSE	TRUE	TRUE
e14	2015	08	04	19	21	f	20	r	10.229343052	2	131	6.00930027093	0.634518838193	right	tactile	left	tactile	target	voice	361.694702646	FALSE	FALSE	FALSE	FALSE	TRUE	0	FALSE	TRUE	TRUE
e14	2015	08	04	19	21	f	20	r	10.229343052	2	132	0.681937988964	0.745041482462	left	visual	right	visual	target	voice	339.223478222	FALSE	FALSE	FALSE	FALSE	FALSE	0	FALSE	FALSE	TRUE
e14	2015	08	04	19	21	f	20	r	10.229343052	2	133	0.672272913973	0.730822323053	right	visual	right	tactile	target	voice	323.124689632	FALSE	FALSE	FALSE	FALSE	TRUE	0	FALSE	TRUE	TRUE
e14	2015	08	04	19	21	f	20	r	10.229343052	2	134	7.16642156697	0.612418033446	left	visual	right	visual	catch	NA	NA	FALSE	FALSE	FALSE	FALSE	TRUE	0	FALSE	TRUE	TRUE
e14	2015	08	04	19	21	f	20	r	10.229343052	2	135	0.571322223055	0.773332233682	left	tactile	left	visual	target	voice	358.319628052	FALSE	FALSE	FALSE	FALSE	TRUE	0	FALSE	TRUE	TRUE
e14	2015	08	04	19	21	f	20	r	10.229343052	2	136	0.763088308042	1.25460315838	right	tactile	left	visual	catch	NA	NA	FALSE	FALSE	FALSE	TRUE	TRUE	0	FALSE	TRUE	TRUE
e14	2015	08	04	19	21	f	20	r	10.229343052	2	137	0.688829964027	1.25700001757	left	visual	left	tactile	target	voice	401.3861852	FALSE	FALSE	FALSE	TRUE	TRUE	0	FALSE	TRUE	TRUE
e14	2015	08	04	19	21	f	20	r	10.229343052	2	138	0.895702885929	1.42554960429	left	tactile	left	visual	target	voice	493.117683334	FALSE	FALSE	FALSE	FALSE	TRUE	0	FALSE	FALSE	TRUE
e14	2015	08	04	19	21	f	20	r	10.229343052	2	139	0.689122396987	1.39176029051	left	tactile	right	tactile	target	voice	373.640184174	FALSE	FALSE	FALSE	FALSE	TRUE	0	FALSE	TRUE	TRUE
e14	2015	08	04	19	21	f	20	r	10.229343052	2	140	0.847661189036	1.29619941831	right	visual	right	tactile	target	voice	388.298187521	FALSE	FALSE	FALSE	FALSE	TRUE	0	FALSE	TRUE	TRUE
e14	2015	08	04	19	21	f	20	r	10.229343052	2	141	4.59948918002	0.900731467994	right	visual	right	visual	target	voice	427.583084675	FALSE	FALSE	FALSE	FALSE	TRUE	0	FALSE	TRUE	TRUE
e14	2015	08	04	19	21	f	20	r	10.229343052	2	142	0.735152904061	1.36502440929	right	tactile	right	visual	target	voice	362.18747939	FALSE	FALSE	FALSE	FALSE	TRUE	0	FALSE	TRUE	TRUE
e14	2015	08	04	19	21	f	20	r	10.229343052	2	143	1.17232137802	0.541761887004	left	tactile	left	visual	target	voice	411.474222783	FALSE	FALSE	FALSE	FALSE	TRUE	0	FALSE	TRUE	TRUE
e14	2015	08	04	19	21	f	20	r	10.229343052	2	144	0.885572261061	1.05308354304	right	tactile	right	visual	target	voice	414.962499635	FALSE	FALSE	FALSE	FALSE	TRUE	0	FALSE	TRUE	TRUE
e14	2015	08	04	19	21	f	20	r	10.229343052	2	145	0.450024046004	1.21784879254	left	tactile	left	tactile	target	voice	NA	TRUE	FALSE	FALSE	FALSE	TRUE	0	FALSE	FALSE	FALSE
e14	2015	08	04	19	21	f	20	r	10.229343052	2	146	1.60258951201	0.924516641379	left	visual	right	tactile	target	voice	589.399968274	FALSE	FALSE	FALSE	TRUE	TRUE	0	FALSE	TRUE	TRUE
e14	2015	08	04	19	21	f	20	r	10.229343052	2	147	0.731900218991	1.30159158112	right	visual	left	visual	target	voice	353.009379702	FALSE	FALSE	FALSE	FALSE	TRUE	0	FALSE	TRUE	TRUE
e14	2015	08	04	19	21	f	20	r	10.229343052	2	148	0.679753149045	1.17841132347	right	tactile	right	tactile	target	voice	417.403669213	FALSE	FALSE	FALSE	FALSE	TRUE	0	FALSE	TRUE	TRUE
e14	2015	08	04	19	21	f	20	r	10.229343052	2	149	0.785980644054	0.839813456397	right	tactile	left	tactile	target	voice	364.984797314	FALSE	FALSE	FALSE	FALSE	TRUE	0	FALSE	TRUE	TRUE
e14	2015	08	04	19	21	f	20	r	10.229343052	2	150	0.795748149976	0.989029222508	left	tactile	right	tactile	target	voice	366.318214219	FALSE	FALSE	FALSE	FALSE	TRUE	0	FALSE	TRUE	TRUE
e14	2015	08	04	19	21	f	20	r	10.229343052	2	151	0.591025099042	1.19810876253	left	tactile	left	tactile	target	voice	277.288555284	FALSE	FALSE	FALSE	FALSE	TRUE	0	FALSE	TRUE	TRUE
e14	2015	08	04	19	21	f	20	r	10.229343052	2	152	0.736743558082	0.514453307299	left	visual	right	tactile	target	voice	399.970422499	FALSE	FALSE	FALSE	FALSE	TRUE	0	FALSE	TRUE	TRUE
e14	2015	08	04	19	21	f	20	r	10.229343052	2	153	0.786254217033	1.06889069909	left	visual	left	visual	target	voice	405.10314866	FALSE	FALSE	FALSE	FALSE	TRUE	0	FALSE	TRUE	TRUE
e14	2015	08	04	19	21	f	20	r	10.229343052	2	154	0.605785785941	1.24501487536	left	tactile	right	visual	target	voice	513.727896381	FALSE	FALSE	FALSE	TRUE	TRUE	0	FALSE	TRUE	TRUE
e14	2015	08	04	19	21	f	20	r	10.229343052	2	155	0.622611236991	0.841797374863	left	tactile	right	tactile	target	voice	365.310830879	FALSE	FALSE	FALSE	TRUE	TRUE	0	FALSE	TRUE	TRUE
e14	2015	08	04	19	21	f	20	r	10.229343052	2	156	0.584803938982	1.39134938889	right	tactile	right	visual	catch	NA	NA	FALSE	FALSE	FALSE	TRUE	TRUE	0	FALSE	TRUE	TRUE
e14	2015	08	04	19	21	f	20	r	10.229343052	2	157	5.91863630596	0.817917984681	right	visual	left	visual	target	voice	528.995269095	FALSE	FALSE	FALSE	TRUE	TRUE	0	FALSE	TRUE	TRUE
e14	2015	08	04	19	21	f	20	r	10.229343052	2	158	0.741376198013	1.0559447109	left	tactile	left	tactile	target	voice	476.885978947	FALSE	FALSE	FALSE	TRUE	TRUE	0	FALSE	TRUE	TRUE
e14	2015	08	04	19	21	f	20	r	10.229343052	2	159	0.574173645931	1.24886806169	right	tactile	left	visual	target	voice	398.320655921	FALSE	FALSE	FALSE	TRUE	TRUE	0	FALSE	TRUE	TRUE
e14	2015	08	04	19	21	f	20	r	10.229343052	2	160	0.801303537912	0.66568295942	left	visual	right	visual	target	voice	436.147918343	FALSE	FALSE	FALSE	TRUE	TRUE	0	FALSE	TRUE	TRUE
e14	2015	08	04	19	21	f	20	r	25.7698335741	3	1	6.924334037	1.38678619819	right	visual	left	tactile	catch	NA	NA	FALSE	FALSE	FALSE	FALSE	TRUE	0	FALSE	TRUE	TRUE
e14	2015	08	04	19	21	f	20	r	25.7698335741	3	2	0.945133686066	0.734006517709	left	tactile	right	tactile	target	voice	391.297572991	FALSE	FALSE	FALSE	FALSE	TRUE	0	FALSE	TRUE	TRUE
e14	2015	08	04	19	21	f	20	r	25.7698335741	3	3	0.601168144029	0.924367588442	left	tactile	right	visual	target	voice	408.795233234	FALSE	FALSE	FALSE	FALSE	TRUE	0	FALSE	TRUE	TRUE
e14	2015	08	04	19	21	f	20	r	25.7698335741	3	4	0.593139423989	0.885257478714	right	visual	right	visual	target	voice	529.943207977	FALSE	FALSE	FALSE	FALSE	FALSE	0	FALSE	FALSE	TRUE
e14	2015	08	04	19	21	f	20	r	25.7698335741	3	5	0.705012966995	1.00722736203	left	tactile	right	visual	target	voice	419.960668776	FALSE	FALSE	FALSE	FALSE	FALSE	0	FALSE	FALSE	TRUE
e14	2015	08	04	19	21	f	20	r	25.7698335741	3	6	0.800340649905	1.05390273017	right	visual	left	tactile	target	voice	385.686910595	FALSE	FALSE	FALSE	FALSE	TRUE	0	FALSE	TRUE	TRUE
e14	2015	08	04	19	21	f	20	r	25.7698335741	3	7	15.4317576051	0.666655490265	left	visual	right	visual	target	voice	447.682183469	FALSE	FALSE	FALSE	FALSE	TRUE	0	FALSE	TRUE	TRUE
e14	2015	08	04	19	21	f	20	r	25.7698335741	3	8	0.708649302949	1.09742565834	left	visual	left	visual	target	voice	430.402187398	FALSE	FALSE	FALSE	FALSE	TRUE	0	FALSE	TRUE	TRUE
e14	2015	08	04	19	21	f	20	r	25.7698335741	3	9	0.522494153003	0.957652779333	left	tactile	left	tactile	target	voice	422.920418438	FALSE	FALSE	FALSE	FALSE	TRUE	0	FALSE	TRUE	TRUE
e14	2015	08	04	19	21	f	20	r	25.7698335741	3	10	0.597038482898	1.43780536243	left	tactile	right	visual	catch	NA	NA	FALSE	FALSE	FALSE	TRUE	TRUE	0	FALSE	TRUE	TRUE
e14	2015	08	04	19	21	f	20	r	25.7698335741	3	11	0.872992632096	1.15281874749	right	visual	left	visual	target	voice	444.388676202	FALSE	FALSE	FALSE	FALSE	TRUE	0	FALSE	TRUE	TRUE
e14	2015	08	04	19	21	f	20	r	25.7698335741	3	12	2.419315545	1.214925086	right	tactile	right	tactile	target	voice	514.713351731	FALSE	FALSE	FALSE	FALSE	TRUE	0	FALSE	TRUE	TRUE
e14	2015	08	04	19	21	f	20	r	25.7698335741	3	13	5.76926478196	0.639654842596	left	visual	right	tactile	target	voice	385.255937115	FALSE	FALSE	FALSE	FALSE	TRUE	0	FALSE	TRUE	TRUE
e14	2015	08	04	19	21	f	20	r	25.7698335741	3	14	0.693422249984	1.01107803464	right	tactile	right	tactile	target	voice	467.618346098	FALSE	FALSE	FALSE	FALSE	FALSE	0	FALSE	FALSE	TRUE
e14	2015	08	04	19	21	f	20	r	25.7698335741	3	15	0.677221804974	0.622358212399	right	visual	left	visual	target	voice	329.07068741	FALSE	FALSE	FALSE	FALSE	TRUE	0	FALSE	TRUE	TRUE
e14	2015	08	04	19	21	f	20	r	25.7698335741	3	16	2.38349658693	1.02752444297	right	visual	left	visual	target	voice	328.698124737	FALSE	FALSE	FALSE	FALSE	TRUE	0	FALSE	TRUE	TRUE
e14	2015	08	04	19	21	f	20	r	25.7698335741	3	17	0.732154840021	0.63393557866	right	visual	left	tactile	target	voice	384.303876082	FALSE	FALSE	FALSE	FALSE	TRUE	0	FALSE	TRUE	TRUE
e14	2015	08	04	19	21	f	20	r	25.7698335741	3	18	0.734512221999	1.085756874	right	visual	right	visual	target	voice	457.819533651	FALSE	FALSE	FALSE	FALSE	TRUE	0	FALSE	TRUE	TRUE
e14	2015	08	04	19	21	f	20	r	25.7698335741	3	19	1.93774846906	1.07295429828	left	tactile	right	visual	target	voice	259.503624402	FALSE	FALSE	FALSE	FALSE	TRUE	0	FALSE	TRUE	TRUE
e14	2015	08	04	19	21	f	20	r	25.7698335741	3	20	0.58939304098	1.08581580284	right	visual	right	visual	catch	NA	NA	FALSE	FALSE	FALSE	FALSE	TRUE	0	FALSE	FALSE	TRUE
e14	2015	08	04	19	21	f	20	r	25.7698335741	3	21	2.31796663697	0.762453862262	right	visual	left	tactile	target	voice	416.706103482	FALSE	FALSE	FALSE	FALSE	TRUE	0	FALSE	TRUE	TRUE
e14	2015	08	04	19	21	f	20	r	25.7698335741	3	22	3.15580973297	0.734331896295	left	tactile	left	visual	catch	NA	NA	FALSE	FALSE	FALSE	TRUE	TRUE	0	TRUE	TRUE	TRUE
e14	2015	08	04	19	21	f	20	r	25.7698335741	3	23	0.39066607703	1.45966232734	left	visual	left	tactile	target	voice	NA	TRUE	FALSE	FALSE	FALSE	FALSE	0	FALSE	FALSE	FALSE
e14	2015	08	04	19	21	f	20	r	25.7698335741	3	24	1.118967243	1.30077588311	right	visual	right	tactile	catch	NA	NA	FALSE	FALSE	FALSE	TRUE	TRUE	0	TRUE	TRUE	TRUE
e14	2015	08	04	19	21	f	20	r	25.7698335741	3	25	0.526993628009	0.825225719799	right	visual	left	visual	target	voice	433.170372853	FALSE	FALSE	FALSE	FALSE	TRUE	0	FALSE	TRUE	TRUE
e14	2015	08	04	19	21	f	20	r	25.7698335741	3	26	0.44451844797	0.889348950761	right	visual	right	visual	target	voice	407.214381848	FALSE	FALSE	FALSE	FALSE	TRUE	0	FALSE	TRUE	TRUE
e14	2015	08	04	19	21	f	20	r	25.7698335741	3	27	0.485965145053	0.655124830966	right	visual	left	tactile	target	voice	318.449853687	FALSE	FALSE	FALSE	FALSE	TRUE	0	FALSE	TRUE	TRUE
e14	2015	08	04	19	21	f	20	r	25.7698335741	3	28	0.580350572011	0.845247583312	right	tactile	right	tactile	target	voice	271.610617405	FALSE	FALSE	FALSE	FALSE	TRUE	0	FALSE	TRUE	TRUE
e14	2015	08	04	19	21	f	20	r	25.7698335741	3	29	1.68616975402	1.35341878457	left	visual	left	tactile	target	voice	441.254375153	FALSE	FALSE	FALSE	FALSE	TRUE	0	FALSE	TRUE	TRUE
e14	2015	08	04	19	21	f	20	r	25.7698335741	3	30	0.669135743054	0.750321784315	right	tactile	left	tactile	target	voice	270.090392441	FALSE	FALSE	FALSE	TRUE	TRUE	0	FALSE	TRUE	TRUE
e14	2015	08	04	19	21	f	20	r	25.7698335741	3	31	0.613119150978	1.18345530011	left	tactile	left	visual	target	voice	499.317909591	FALSE	FALSE	FALSE	FALSE	TRUE	0	FALSE	TRUE	TRUE
e14	2015	08	04	19	21	f	20	r	25.7698335741	3	32	0.663397175027	1.34919669316	right	visual	right	tactile	target	voice	364.732387476	FALSE	FALSE	FALSE	FALSE	TRUE	0	FALSE	TRUE	TRUE
e14	2015	08	04	19	21	f	20	r	25.7698335741	3	33	0.580698131002	1.24406440296	left	tactile	left	visual	target	voice	284.970557666	FALSE	FALSE	FALSE	FALSE	TRUE	0	FALSE	TRUE	TRUE
e14	2015	08	04	19	21	f	20	r	25.7698335741	3	34	2.27165494591	1.0372799209	left	visual	right	tactile	target	voice	267.883196822	FALSE	FALSE	FALSE	FALSE	TRUE	0	FALSE	FALSE	TRUE
e14	2015	08	04	19	21	f	20	r	25.7698335741	3	35	0.846557477023	0.820587879261	right	tactile	right	visual	catch	NA	NA	FALSE	FALSE	FALSE	FALSE	TRUE	0	FALSE	TRUE	TRUE
e14	2015	08	04	19	21	f	20	r	25.7698335741	3	36	1.18164293596	1.38081548816	left	tactile	left	tactile	target	voice	350.992849562	FALSE	FALSE	FALSE	FALSE	TRUE	0	FALSE	TRUE	TRUE
e14	2015	08	04	19	21	f	20	r	25.7698335741	3	37	0.634061780991	1.47635946287	right	visual	left	visual	target	voice	NA	TRUE	FALSE	FALSE	FALSE	TRUE	0	FALSE	TRUE	FALSE
e14	2015	08	04	19	21	f	20	r	25.7698335741	3	38	1.45451373793	0.655898192783	right	visual	left	tactile	target	voice	361.177120009	FALSE	FALSE	FALSE	FALSE	TRUE	0	FALSE	TRUE	TRUE
e14	2015	08	04	19	21	f	20	r	25.7698335741	3	39	2.01051810395	1.23375018503	left	tactile	right	tactile	target	voice	234.433812671	FALSE	FALSE	FALSE	FALSE	TRUE	0	FALSE	TRUE	TRUE
e14	2015	08	04	19	21	f	20	r	25.7698335741	3	40	0.547871056944	0.590025103052	right	tactile	left	visual	target	voice	345.713803661	FALSE	FALSE	FALSE	FALSE	FALSE	0	FALSE	FALSE	TRUE
e14	2015	08	04	19	21	f	20	r	7.73501542211	3	41	3.74178052496	0.657898676454	right	visual	left	visual	target	voice	340.459164348	FALSE	FALSE	FALSE	TRUE	TRUE	0	FALSE	TRUE	TRUE
e14	2015	08	04	19	21	f	20	r	7.73501542211	3	42	0.587752592051	1.31164689273	right	tactile	left	tactile	catch	NA	NA	FALSE	FALSE	FALSE	FALSE	TRUE	0	FALSE	TRUE	TRUE
e14	2015	08	04	19	21	f	20	r	7.73501542211	3	43	0.692200156976	1.12976403341	right	visual	right	tactile	target	voice	292.01161128	FALSE	FALSE	FALSE	TRUE	TRUE	0	FALSE	FALSE	TRUE
e14	2015	08	04	19	21	f	20	r	7.73501542211	3	44	0.549141980009	0.504769980119	right	visual	right	visual	target	voice	398.178202566	FALSE	FALSE	FALSE	TRUE	TRUE	0	FALSE	TRUE	TRUE
e14	2015	08	04	19	21	f	20	r	7.73501542211	3	45	0.655853831908	1.2063994868	left	visual	right	tactile	target	voice	273.580490961	FALSE	FALSE	FALSE	FALSE	FALSE	0	FALSE	FALSE	TRUE
e14	2015	08	04	19	21	f	20	r	7.73501542211	3	46	0.591245624004	1.21944610963	right	visual	left	visual	catch	NA	NA	FALSE	FALSE	FALSE	FALSE	TRUE	0	FALSE	TRUE	TRUE
e14	2015	08	04	19	21	f	20	r	7.73501542211	3	47	0.790910689975	1.4756269797	right	tactile	right	visual	target	voice	612.154909992	FALSE	FALSE	FALSE	TRUE	TRUE	0	FALSE	FALSE	TRUE
e14	2015	08	04	19	21	f	20	r	7.73501542211	3	48	0.751242658938	1.32695836014	left	visual	left	visual	target	voice	464.493748615	FALSE	FALSE	FALSE	FALSE	TRUE	0	FALSE	TRUE	TRUE
e14	2015	08	04	19	21	f	20	r	7.73501542211	3	49	0.636288768961	1.20547453421	left	tactile	left	visual	target	voice	232.187743532	FALSE	FALSE	FALSE	FALSE	TRUE	0	FALSE	FALSE	TRUE
e14	2015	08	04	19	21	f	20	r	7.73501542211	3	50	0.542498038034	1.21479775534	right	visual	right	visual	target	voice	845.735211391	FALSE	FALSE	FALSE	TRUE	TRUE	0	TRUE	TRUE	TRUE
e14	2015	08	04	19	21	f	20	r	7.73501542211	3	51	2.23762026592	0.637510746017	right	visual	left	tactile	target	voice	343.326851726	FALSE	FALSE	FALSE	FALSE	TRUE	0	FALSE	FALSE	TRUE
e14	2015	08	04	19	21	f	20	r	7.73501542211	3	52	0.773224299075	0.601970224534	left	tactile	left	visual	target	voice	291.434638202	FALSE	FALSE	FALSE	TRUE	TRUE	0	FALSE	TRUE	TRUE
e14	2015	08	04	19	21	f	20	r	7.73501542211	3	53	0.638752991101	0.575566535934	left	tactile	right	tactile	target	voice	156.051509781	FALSE	FALSE	FALSE	FALSE	TRUE	0	FALSE	TRUE	TRUE
e14	2015	08	04	19	21	f	20	r	7.73501542211	3	54	0.667982770014	1.04034367069	left	visual	right	visual	target	voice	433.262124192	FALSE	FALSE	FALSE	FALSE	TRUE	0	FALSE	TRUE	TRUE
e14	2015	08	04	19	21	f	20	r	7.73501542211	3	55	0.758621782996	0.67169831509	right	visual	left	tactile	target	voice	200.8313447	FALSE	FALSE	FALSE	FALSE	TRUE	0	FALSE	TRUE	TRUE
e14	2015	08	04	19	21	f	20	r	7.73501542211	3	56	0.743140555103	1.19469663952	right	tactile	right	visual	target	voice	400.16653412	FALSE	FALSE	FALSE	FALSE	TRUE	0	FALSE	TRUE	TRUE
e14	2015	08	04	19	21	f	20	r	7.73501542211	3	57	0.66631856095	1.26300489497	left	visual	right	tactile	catch	voice	NA	TRUE	FALSE	FALSE	FALSE	TRUE	0	FALSE	FALSE	FALSE
e14	2015	08	04	19	21	f	20	r	7.73501542211	3	58	1.30049612699	1.45192417484	right	tactile	right	visual	target	voice	348.562180996	FALSE	FALSE	FALSE	FALSE	TRUE	0	FALSE	TRUE	TRUE
e14	2015	08	04	19	21	f	20	r	7.73501542211	3	59	0.416265791981	0.878104874326	right	visual	right	tactile	target	voice	NA	TRUE	FALSE	FALSE	FALSE	FALSE	0	FALSE	FALSE	FALSE
e14	2015	08	04	19	21	f	20	r	7.73501542211	3	60	0.667246027966	1.36643206807	left	visual	left	visual	catch	NA	NA	FALSE	FALSE	FALSE	FALSE	TRUE	0	FALSE	TRUE	TRUE
e14	2015	08	04	19	21	f	20	r	7.73501542211	3	61	0.795074363006	0.878207083617	left	tactile	left	tactile	target	voice	321.162297972	FALSE	FALSE	FALSE	TRUE	TRUE	0	FALSE	TRUE	TRUE
e14	2015	08	04	19	21	f	20	r	7.73501542211	3	62	0.911323556094	1.15435230483	left	tactile	right	tactile	target	voice	230.845399783	FALSE	FALSE	FALSE	FALSE	TRUE	0	FALSE	TRUE	TRUE
e14	2015	08	04	19	21	f	20	r	7.73501542211	3	63	0.634118114947	0.682847329886	left	visual	right	visual	target	voice	387.568086851	FALSE	FALSE	FALSE	FALSE	TRUE	0	FALSE	TRUE	TRUE
e14	2015	08	04	19	21	f	20	r	7.73501542211	3	64	0.726789247012	0.811237671597	right	tactile	left	tactile	target	voice	237.148871063	FALSE	FALSE	FALSE	FALSE	TRUE	0	FALSE	TRUE	TRUE
e14	2015	08	04	19	21	f	20	r	7.73501542211	3	65	0.622892906889	0.926248795492	right	tactile	left	tactile	target	voice	221.86745319	FALSE	FALSE	FALSE	TRUE	TRUE	0	FALSE	TRUE	TRUE
e14	2015	08	04	19	21	f	20	r	7.73501542211	3	66	0.534627966001	0.594712040916	left	visual	left	tactile	target	voice	384.471991798	FALSE	FALSE	FALSE	TRUE	TRUE	0	FALSE	TRUE	TRUE
e14	2015	08	04	19	21	f	20	r	7.73501542211	3	67	0.713392951991	0.647290754173	left	tactile	left	visual	target	voice	220.056889579	FALSE	FALSE	FALSE	FALSE	TRUE	0	FALSE	TRUE	TRUE
e14	2015	08	04	19	21	f	20	r	7.73501542211	3	68	0.518889587023	0.954956721366	right	tactile	left	tactile	target	voice	219.379746355	FALSE	FALSE	FALSE	FALSE	TRUE	0	FALSE	TRUE	TRUE
e14	2015	08	04	19	21	f	20	r	7.73501542211	3	69	0.79073986609	0.509153899908	left	tactile	left	tactile	target	voice	405.075449962	FALSE	FALSE	FALSE	FALSE	TRUE	0	FALSE	TRUE	TRUE
e14	2015	08	04	19	21	f	20	r	7.73501542211	3	70	0.633105732966	1.01315037158	left	tactile	right	tactile	target	voice	203.387972084	FALSE	FALSE	FALSE	FALSE	TRUE	0	FALSE	TRUE	TRUE
e14	2015	08	04	19	21	f	20	r	7.73501542211	3	71	0.551907452988	1.19430378056	left	visual	left	tactile	target	voice	383.283993113	FALSE	FALSE	FALSE	FALSE	TRUE	0	FALSE	TRUE	TRUE
e14	2015	08	04	19	21	f	20	r	7.73501542211	3	72	0.482414785074	0.58436235611	right	tactile	left	tactile	target	voice	300.533781643	FALSE	FALSE	FALSE	TRUE	TRUE	0	FALSE	TRUE	TRUE
e14	2015	08	04	19	21	f	20	r	7.73501542211	3	73	1.84079052007	1.06055772874	right	visual	left	visual	target	voice	383.381495019	FALSE	FALSE	FALSE	FALSE	TRUE	0	FALSE	TRUE	TRUE
e14	2015	08	04	19	21	f	20	r	7.73501542211	3	74	0.508815794019	1.26552686364	right	tactile	right	visual	target	voice	143.405315001	FALSE	FALSE	FALSE	FALSE	TRUE	0	FALSE	TRUE	TRUE
e14	2015	08	04	19	21	f	20	r	7.73501542211	3	75	0.705927666975	1.40672560375	left	visual	left	visual	target	voice	422.889468959	FALSE	FALSE	FALSE	TRUE	TRUE	0	TRUE	TRUE	TRUE
e14	2015	08	04	19	21	f	20	r	7.73501542211	3	76	0.584240525961	0.634833519776	right	visual	right	tactile	target	voice	361.429283977	FALSE	FALSE	FALSE	FALSE	TRUE	0	FALSE	TRUE	TRUE
e14	2015	08	04	19	21	f	20	r	7.73501542211	3	77	2.05452623707	1.11152209802	right	visual	right	visual	target	voice	446.713467711	FALSE	FALSE	FALSE	FALSE	TRUE	0	FALSE	TRUE	TRUE
e14	2015	08	04	19	21	f	20	r	7.73501542211	3	78	0.561071443022	1.14146431961	left	visual	left	tactile	target	voice	NA	TRUE	FALSE	FALSE	FALSE	TRUE	0	FALSE	TRUE	FALSE
e14	2015	08	04	19	21	f	20	r	7.73501542211	3	79	7.90218908701	0.716420543891	left	visual	left	tactile	target	voice	232.977848849	FALSE	FALSE	FALSE	FALSE	TRUE	0	FALSE	TRUE	TRUE
e14	2015	08	04	19	21	f	20	r	7.73501542211	3	80	0.589641734026	0.563547436528	left	visual	left	visual	target	voice	340.561164194	FALSE	FALSE	FALSE	TRUE	TRUE	0	FALSE	TRUE	TRUE
e14	2015	08	04	19	21	f	20	r	13.0610232659	3	81	0.721077035996	1.45551565566	right	tactile	right	visual	target	voice	NA	TRUE	FALSE	FALSE	TRUE	TRUE	0	FALSE	FALSE	FALSE
e14	2015	08	04	19	21	f	20	r	13.0610232659	3	82	1.80445562699	0.707457261727	right	visual	left	visual	target	voice	535.100128036	FALSE	FALSE	FALSE	FALSE	TRUE	0	FALSE	TRUE	TRUE
e14	2015	08	04	19	21	f	20	r	13.0610232659	3	83	0.415151337045	0.873655941904	left	visual	right	tactile	target	voice	253.710070741	FALSE	FALSE	FALSE	FALSE	TRUE	0	FALSE	TRUE	TRUE
e14	2015	08	04	19	21	f	20	r	13.0610232659	3	84	0.419869228033	0.95304050725	left	visual	left	visual	target	voice	380.891487468	FALSE	FALSE	FALSE	FALSE	TRUE	0	FALSE	TRUE	TRUE
e14	2015	08	04	19	21	f	20	r	13.0610232659	3	85	0.537946189055	0.68426092732	right	visual	right	tactile	target	voice	138.530456345	FALSE	FALSE	FALSE	FALSE	TRUE	0	FALSE	TRUE	TRUE
e14	2015	08	04	19	21	f	20	r	13.0610232659	3	86	0.59105745703	1.34949185071	right	tactile	left	tactile	target	voice	213.800632046	FALSE	FALSE	FALSE	FALSE	TRUE	0	FALSE	TRUE	TRUE
e14	2015	08	04	19	21	f	20	r	13.0610232659	3	87	0.527191734058	0.877632555266	right	tactile	left	visual	target	voice	137.021067436	FALSE	FALSE	FALSE	FALSE	TRUE	0	FALSE	TRUE	TRUE
e14	2015	08	04	19	21	f	20	r	13.0610232659	3	88	0.441704344004	1.39421097359	right	tactile	right	tactile	target	voice	315.349863144	FALSE	FALSE	FALSE	FALSE	TRUE	0	FALSE	TRUE	TRUE
e14	2015	08	04	19	21	f	20	r	13.0610232659	3	89	0.496960124001	1.32895544241	right	visual	right	visual	target	voice	381.904211245	FALSE	FALSE	FALSE	FALSE	TRUE	0	FALSE	TRUE	TRUE
e14	2015	08	04	19	21	f	20	r	13.0610232659	3	90	0.409434659989	0.827512897481	right	visual	left	tactile	target	voice	396.237504319	FALSE	FALSE	FALSE	FALSE	TRUE	0	FALSE	TRUE	TRUE
e14	2015	08	04	19	21	f	20	r	13.0610232659	3	91	1.79833991104	0.71333260715	left	tactile	left	visual	target	voice	415.791677544	FALSE	FALSE	FALSE	FALSE	TRUE	0	FALSE	TRUE	TRUE
e14	2015	08	04	19	21	f	20	r	13.0610232659	3	92	0.484730892	1.12070784859	left	visual	right	visual	target	voice	397.633178043	FALSE	FALSE	FALSE	FALSE	TRUE	0	FALSE	TRUE	TRUE
e14	2015	08	04	19	21	f	20	r	13.0610232659	3	93	0.506189202075	0.552995794757	left	tactile	right	tactile	target	voice	273.661944899	FALSE	FALSE	FALSE	TRUE	TRUE	0	FALSE	TRUE	TRUE
e14	2015	08	04	19	21	f	20	r	13.0610232659	3	94	1.82655333995	1.02571046335	left	tactile	left	tactile	catch	NA	NA	FALSE	FALSE	FALSE	FALSE	TRUE	0	FALSE	TRUE	TRUE
e14	2015	08	04	19	21	f	20	r	13.0610232659	3	95	0.987435357994	1.29777212909	right	tactile	left	visual	target	voice	387.390285614	FALSE	FALSE	FALSE	FALSE	TRUE	0	FALSE	TRUE	TRUE
e14	2015	08	04	19	21	f	20	r	13.0610232659	3	96	0.649060160038	1.09445952908	left	visual	right	visual	target	voice	348.396177753	FALSE	FALSE	FALSE	FALSE	TRUE	0	FALSE	TRUE	TRUE
e14	2015	08	04	19	21	f	20	r	13.0610232659	3	97	0.485317141982	0.550451190212	left	tactile	right	visual	target	voice	408.452778589	FALSE	FALSE	FALSE	FALSE	FALSE	0	FALSE	FALSE	TRUE
e14	2015	08	04	19	21	f	20	r	13.0610232659	3	98	0.459314594045	0.810918018321	left	visual	right	tactile	target	voice	280.251907301	FALSE	FALSE	FALSE	FALSE	TRUE	0	FALSE	TRUE	TRUE
e14	2015	08	04	19	21	f	20	r	13.0610232659	3	99	0.401055507944	0.909134279331	left	visual	left	visual	target	voice	333.262217348	FALSE	FALSE	FALSE	FALSE	TRUE	0	FALSE	TRUE	TRUE
e14	2015	08	04	19	21	f	20	r	13.0610232659	3	100	0.476615402964	1.33052763133	left	tactile	left	tactile	target	voice	356.677528354	FALSE	FALSE	FALSE	FALSE	TRUE	0	FALSE	TRUE	TRUE
e14	2015	08	04	19	21	f	20	r	13.0610232659	3	101	0.392464570003	0.796773046961	left	tactile	right	visual	target	voice	599.967934773	FALSE	FALSE	FALSE	FALSE	TRUE	0	FALSE	TRUE	TRUE
e14	2015	08	04	19	21	f	20	r	13.0610232659	3	102	0.402889919933	1.39433033077	right	tactile	right	tactile	catch	NA	NA	FALSE	FALSE	FALSE	TRUE	TRUE	0	FALSE	TRUE	TRUE
e14	2015	08	04	19	21	f	20	r	13.0610232659	3	103	0.511005391949	1.24569461176	right	tactile	right	tactile	target	voice	535.27506988	FALSE	FALSE	FALSE	TRUE	TRUE	0	FALSE	TRUE	TRUE
e14	2015	08	04	19	21	f	20	r	13.0610232659	3	104	1.73537182901	1.41363309494	right	visual	right	visual	target	NA	NA	FALSE	FALSE	FALSE	FALSE	TRUE	0	FALSE	TRUE	TRUE
e14	2015	08	04	19	21	f	20	r	13.0610232659	3	105	1.53699470405	0.925193687177	left	tactile	right	visual	target	voice	613.104544464	FALSE	FALSE	FALSE	TRUE	TRUE	0	FALSE	TRUE	TRUE
e14	2015	08	04	19	21	f	20	r	13.0610232659	3	106	0.584451972973	0.869258831615	right	tactile	right	tactile	target	voice	354.83021813	FALSE	FALSE	FALSE	FALSE	TRUE	0	FALSE	TRUE	TRUE
e14	2015	08	04	19	21	f	20	r	13.0610232659	3	107	0.468874090002	0.70885541764	right	tactile	left	visual	target	voice	411.103455117	FALSE	FALSE	FALSE	FALSE	TRUE	0	FALSE	TRUE	TRUE
e14	2015	08	04	19	21	f	20	r	13.0610232659	3	108	1.52692093293	0.995536306938	left	tactile	left	tactile	target	voice	363.188219722	FALSE	FALSE	FALSE	TRUE	TRUE	0	FALSE	TRUE	TRUE
e14	2015	08	04	19	21	f	20	r	13.0610232659	3	109	0.505445924937	1.31466645003	right	tactile	right	visual	target	voice	461.911120685	FALSE	FALSE	FALSE	FALSE	FALSE	0	FALSE	FALSE	TRUE
e14	2015	08	04	19	21	f	20	r	13.0610232659	3	110	0.442046436016	1.44265381341	right	tactile	right	tactile	target	voice	363.550141337	FALSE	FALSE	FALSE	TRUE	TRUE	0	FALSE	TRUE	TRUE
e14	2015	08	04	19	21	f	20	r	13.0610232659	3	111	2.12299401697	0.656615666959	left	tactile	left	tactile	target	voice	416.922338773	FALSE	FALSE	FALSE	TRUE	TRUE	0	FALSE	TRUE	TRUE
e14	2015	08	04	19	21	f	20	r	13.0610232659	3	112	0.465157477069	1.24248066614	left	tactile	right	visual	target	voice	531.374989543	FALSE	FALSE	FALSE	TRUE	TRUE	0	FALSE	TRUE	TRUE
e14	2015	08	04	19	21	f	20	r	13.0610232659	3	113	0.407762479968	0.504166912452	right	tactile	right	tactile	target	NA	NA	FALSE	FALSE	FALSE	TRUE	TRUE	0	FALSE	TRUE	TRUE
e14	2015	08	04	19	21	f	20	r	13.0610232659	3	114	1.91109036608	1.09096215115	left	visual	right	visual	catch	voice	593.276893604	FALSE	FALSE	FALSE	TRUE	TRUE	0	FALSE	TRUE	TRUE
e14	2015	08	04	19	21	f	20	r	13.0610232659	3	115	6.09987861803	1.29001654662	left	visual	left	tactile	catch	NA	NA	FALSE	FALSE	FALSE	TRUE	TRUE	0	FALSE	TRUE	TRUE
e14	2015	08	04	19	21	f	20	r	13.0610232659	3	116	0.984476875979	0.662478895109	left	visual	right	tactile	target	voice	364.831821527	FALSE	FALSE	FALSE	TRUE	TRUE	0	FALSE	TRUE	TRUE
e14	2015	08	04	19	21	f	20	r	13.0610232659	3	117	0.541555566015	1.01009680777	left	visual	right	tactile	target	voice	354.849959956	FALSE	FALSE	FALSE	TRUE	TRUE	0	FALSE	TRUE	TRUE
e14	2015	08	04	19	21	f	20	r	13.0610232659	3	118	0.452573621995	1.49309202392	right	visual	left	tactile	target	voice	286.972706788	FALSE	FALSE	FALSE	TRUE	TRUE	0	FALSE	TRUE	TRUE
e14	2015	08	04	19	21	f	20	r	13.0610232659	3	119	0.426128347986	0.755573025581	left	tactile	right	tactile	target	voice	947.249183082	FALSE	FALSE	FALSE	TRUE	TRUE	0	FALSE	TRUE	TRUE
e14	2015	08	04	19	21	f	20	r	13.0610232659	3	120	0.406434016069	0.541549168913	left	tactile	left	visual	target	voice	494.551834883	FALSE	FALSE	FALSE	TRUE	TRUE	0	FALSE	FALSE	TRUE
e14	2015	08	04	19	21	f	20	r	9.17101972399	3	121	1.90074961109	1.26036155063	left	tactile	right	visual	target	voice	165.251260158	FALSE	FALSE	FALSE	FALSE	TRUE	0	FALSE	FALSE	TRUE
e14	2015	08	04	19	21	f	20	r	9.17101972399	3	122	0.565649979981	1.10322341534	right	visual	right	tactile	target	voice	337.657680386	FALSE	FALSE	FALSE	FALSE	TRUE	0	FALSE	FALSE	TRUE
e14	2015	08	04	19	21	f	20	r	9.17101972399	3	123	0.493667270988	1.4559029674	left	tactile	right	tactile	catch	NA	NA	FALSE	FALSE	FALSE	TRUE	TRUE	0	FALSE	FALSE	TRUE
e14	2015	08	04	19	21	f	20	r	9.17101972399	3	124	0.526850585011	1.05142197352	left	visual	right	tactile	target	voice	190.540522221	FALSE	FALSE	FALSE	TRUE	TRUE	0	FALSE	TRUE	TRUE
e14	2015	08	04	19	21	f	20	r	9.17101972399	3	125	0.518709861091	1.47033340114	left	visual	left	tactile	target	voice	370.960134547	FALSE	FALSE	FALSE	TRUE	TRUE	0	FALSE	FALSE	TRUE
e14	2015	08	04	19	21	f	20	r	9.17101972399	3	126	0.470387773938	0.604646723371	right	tactile	left	tactile	target	voice	495.507502346	FALSE	FALSE	FALSE	TRUE	TRUE	0	FALSE	TRUE	TRUE
e14	2015	08	04	19	21	f	20	r	9.17101972399	3	127	1.80914956902	1.20334341119	right	tactile	left	tactile	target	voice	62.5371885253	FALSE	FALSE	FALSE	TRUE	TRUE	0	FALSE	FALSE	TRUE
e14	2015	08	04	19	21	f	20	r	9.17101972399	3	128	0.463225798914	0.99212033458	right	visual	right	visual	target	voice	458.831495256	FALSE	FALSE	FALSE	FALSE	TRUE	0	FALSE	TRUE	TRUE
e14	2015	08	04	19	21	f	20	r	9.17101972399	3	129	0.412221843959	0.658870473589	left	visual	left	tactile	target	voice	377.324784175	FALSE	FALSE	FALSE	FALSE	FALSE	0	FALSE	FALSE	TRUE
e14	2015	08	04	19	21	f	20	r	9.17101972399	3	130	0.404766096966	0.538469557022	right	tactile	left	visual	target	voice	280.379427597	FALSE	FALSE	FALSE	TRUE	TRUE	0	FALSE	FALSE	TRUE
e14	2015	08	04	19	21	f	20	r	9.17101972399	3	131	1.67008730804	1.06201337734	right	tactile	left	visual	target	voice	355.123552377	FALSE	FALSE	FALSE	FALSE	TRUE	0	FALSE	TRUE	TRUE
e14	2015	08	04	19	21	f	20	r	9.17101972399	3	132	1.87585893809	0.535575043159	left	visual	left	visual	target	voice	188.423084561	FALSE	FALSE	FALSE	FALSE	TRUE	0	FALSE	TRUE	TRUE
e14	2015	08	04	19	21	f	20	r	9.17101972399	3	133	0.618428191985	1.29215259061	right	tactile	right	visual	target	voice	505.397632136	FALSE	FALSE	FALSE	TRUE	TRUE	0	FALSE	TRUE	TRUE
e14	2015	08	04	19	21	f	20	r	9.17101972399	3	134	0.421436654055	0.798045927885	left	visual	right	visual	target	voice	176.666313782	FALSE	FALSE	FALSE	TRUE	TRUE	0	FALSE	TRUE	TRUE
e14	2015	08	04	19	21	f	20	r	9.17101972399	3	135	0.567798176082	1.17349092991	left	tactile	right	tactile	target	voice	212.713026791	FALSE	FALSE	FALSE	TRUE	TRUE	0	FALSE	TRUE	TRUE
e14	2015	08	04	19	21	f	20	r	9.17101972399	3	136	0.442431001924	1.34902599598	left	tactile	right	tactile	target	voice	200.29416075	FALSE	FALSE	FALSE	TRUE	TRUE	0	FALSE	TRUE	TRUE
e14	2015	08	04	19	21	f	20	r	9.17101972399	3	137	0.398878599983	0.891214111304	left	visual	left	visual	target	voice	467.333464418	FALSE	FALSE	FALSE	TRUE	TRUE	0	FALSE	TRUE	TRUE
e14	2015	08	04	19	21	f	20	r	9.17101972399	3	138	0.594302522019	1.17720086182	left	tactile	left	tactile	target	voice	356.965443934	FALSE	FALSE	FALSE	TRUE	TRUE	0	FALSE	TRUE	TRUE
e14	2015	08	04	19	21	f	20	r	9.17101972399	3	139	1.91879249807	1.23618999328	right	tactile	left	visual	target	voice	558.4408344	FALSE	FALSE	FALSE	TRUE	TRUE	0	FALSE	TRUE	TRUE
e14	2015	08	04	19	21	f	20	r	9.17101972399	3	140	0.554090074031	0.997715753204	right	tactile	left	visual	target	voice	358.790171565	FALSE	FALSE	FALSE	TRUE	TRUE	0	FALSE	TRUE	TRUE
e14	2015	08	04	19	21	f	20	r	9.17101972399	3	141	0.401344968937	1.40919089451	right	tactile	left	visual	target	voice	93.9309042878	FALSE	FALSE	FALSE	TRUE	TRUE	0	FALSE	TRUE	TRUE
e14	2015	08	04	19	21	f	20	r	9.17101972399	3	142	0.422370808898	0.9614274831	left	visual	right	visual	target	voice	362.331341603	FALSE	FALSE	FALSE	TRUE	TRUE	0	FALSE	TRUE	TRUE
e14	2015	08	04	19	21	f	20	r	9.17101972399	3	143	0.541297390941	0.795486892524	left	visual	right	visual	target	voice	310.156376217	FALSE	FALSE	FALSE	TRUE	TRUE	0	FALSE	FALSE	TRUE
e14	2015	08	04	19	21	f	20	r	9.17101972399	3	144	0.471171283978	0.542303232717	right	tactile	right	visual	target	voice	193.845869042	FALSE	FALSE	FALSE	TRUE	TRUE	0	FALSE	TRUE	TRUE
e14	2015	08	04	19	21	f	20	r	9.17101972399	3	145	0.412369439029	1.14454036593	left	tactile	right	visual	target	voice	229.675600887	FALSE	FALSE	FALSE	TRUE	TRUE	0	FALSE	TRUE	TRUE
e14	2015	08	04	19	21	f	20	r	9.17101972399	3	146	1.6562512439	1.38643392626	left	visual	right	visual	target	voice	293.775949394	FALSE	FALSE	FALSE	FALSE	TRUE	0	FALSE	FALSE	TRUE
e14	2015	08	04	19	21	f	20	r	9.17101972399	3	147	0.475156072993	0.728021371439	right	visual	right	tactile	target	voice	215.278146323	FALSE	FALSE	FALSE	TRUE	TRUE	0	FALSE	TRUE	TRUE
e14	2015	08	04	19	21	f	20	r	9.17101972399	3	148	0.50684553897	0.871266648438	left	tactile	left	visual	target	voice	276.978808222	FALSE	FALSE	FALSE	TRUE	TRUE	0	FALSE	FALSE	TRUE
e14	2015	08	04	19	21	f	20	r	9.17101972399	3	149	0.416210011928	0.926004376444	right	visual	right	tactile	target	voice	336.489243316	FALSE	FALSE	FALSE	TRUE	TRUE	0	FALSE	TRUE	TRUE
e14	2015	08	04	19	21	f	20	r	9.17101972399	3	150	1.75865510397	0.662085164192	right	visual	left	visual	target	voice	288.041439489	FALSE	FALSE	FALSE	FALSE	TRUE	0	FALSE	TRUE	TRUE
e14	2015	08	04	19	21	f	20	r	9.17101972399	3	151	0.476125601912	1.47671741422	right	tactile	right	visual	target	voice	422.7922305	FALSE	FALSE	FALSE	TRUE	TRUE	0	FALSE	TRUE	TRUE
e14	2015	08	04	19	21	f	20	r	9.17101972399	3	152	0.418805945897	0.808466700915	left	visual	right	tactile	target	voice	339.035250712	FALSE	FALSE	FALSE	TRUE	TRUE	0	FALSE	TRUE	TRUE
e14	2015	08	04	19	21	f	20	r	9.17101972399	3	153	2.13627623394	1.10435124048	left	tactile	left	visual	target	voice	NA	TRUE	FALSE	FALSE	TRUE	TRUE	0	FALSE	FALSE	FALSE
e14	2015	08	04	19	21	f	20	r	9.17101972399	3	154	1.54231340194	1.49744223613	left	visual	left	visual	target	voice	241.244227509	FALSE	FALSE	FALSE	TRUE	TRUE	0	FALSE	FALSE	TRUE
e14	2015	08	04	19	21	f	20	r	9.17101972399	3	155	0.503569514025	0.825678412005	left	tactile	left	tactile	target	voice	231.687570689	FALSE	FALSE	FALSE	TRUE	TRUE	0	FALSE	TRUE	TRUE
e14	2015	08	04	19	21	f	20	r	9.17101972399	3	156	0.418188187992	1.26080018795	right	tactile	right	tactile	target	voice	254.291965859	FALSE	FALSE	FALSE	TRUE	TRUE	0	FALSE	TRUE	TRUE
e14	2015	08	04	19	21	f	20	r	9.17101972399	3	157	0.405546031892	0.749437609307	left	visual	left	tactile	target	voice	449.404022424	FALSE	FALSE	FALSE	TRUE	TRUE	0	FALSE	FALSE	TRUE
e14	2015	08	04	19	21	f	20	r	9.17101972399	3	158	0.398965793895	1.45167403762	right	visual	right	tactile	target	voice	501.996488078	FALSE	FALSE	FALSE	TRUE	TRUE	0	FALSE	TRUE	TRUE
e14	2015	08	04	19	21	f	20	r	9.17101972399	3	159	0.401760743931	1.33815945662	right	tactile	left	tactile	target	voice	267.94238307	FALSE	FALSE	FALSE	TRUE	TRUE	0	FALSE	TRUE	TRUE
e14	2015	08	04	19	21	f	20	r	9.17101972399	3	160	2.27833987796	1.30064066364	right	tactile	left	visual	catch	voice	269.860297092	FALSE	FALSE	FALSE	TRUE	TRUE	0	FALSE	TRUE	TRUE
e14	2015	08	04	19	21	f	20	r	32.143152268	4	1	0.602977387025	0.61768069049	right	visual	left	tactile	catch	NA	NA	FALSE	FALSE	FALSE	FALSE	FALSE	0	FALSE	FALSE	TRUE
e14	2015	08	04	19	21	f	20	r	32.143152268	4	2	1.48939586792	0.706346182925	right	visual	right	visual	target	voice	471.903819824	FALSE	FALSE	FALSE	FALSE	TRUE	0	FALSE	TRUE	TRUE
e14	2015	08	04	19	21	f	20	r	32.143152268	4	3	0.707128256094	0.569526764914	left	visual	right	visual	target	voice	365.347743733	FALSE	FALSE	FALSE	FALSE	TRUE	0	FALSE	TRUE	TRUE
e14	2015	08	04	19	21	f	20	r	32.143152268	4	4	0.493062943919	0.782298507255	left	visual	right	tactile	target	voice	256.732844398	FALSE	FALSE	FALSE	FALSE	TRUE	0	FALSE	TRUE	TRUE
e14	2015	08	04	19	21	f	20	r	32.143152268	4	5	0.424520578934	1.06924546865	right	tactile	left	visual	target	voice	NA	TRUE	FALSE	FALSE	FALSE	FALSE	0	FALSE	FALSE	FALSE
e14	2015	08	04	19	21	f	20	r	32.143152268	4	6	0.737488443963	1.18482814345	right	visual	left	visual	target	voice	252.394529292	FALSE	FALSE	FALSE	FALSE	TRUE	0	FALSE	TRUE	TRUE
e14	2015	08	04	19	21	f	20	r	32.143152268	4	7	0.403170180041	1.14022117422	left	visual	left	visual	target	voice	350.343303406	FALSE	FALSE	FALSE	FALSE	TRUE	0	FALSE	FALSE	TRUE
e14	2015	08	04	19	21	f	20	r	32.143152268	4	8	2.06679316901	1.38292536755	left	tactile	right	tactile	target	voice	325.294354116	FALSE	FALSE	FALSE	FALSE	TRUE	0	FALSE	TRUE	TRUE
e14	2015	08	04	19	21	f	20	r	32.143152268	4	9	0.452483808971	0.6917822605	left	tactile	left	visual	target	voice	209.695069236	FALSE	FALSE	FALSE	FALSE	TRUE	0	FALSE	TRUE	TRUE
e14	2015	08	04	19	21	f	20	r	32.143152268	4	10	0.524108251906	0.952642906292	left	visual	right	tactile	target	voice	309.439892415	FALSE	FALSE	FALSE	TRUE	TRUE	0	FALSE	TRUE	TRUE
e14	2015	08	04	19	21	f	20	r	32.143152268	4	11	0.475968784071	0.751493290296	left	visual	left	tactile	target	voice	310.8640844	FALSE	FALSE	FALSE	FALSE	TRUE	0	FALSE	TRUE	TRUE
e14	2015	08	04	19	21	f	20	r	32.143152268	4	12	0.47093868209	1.15347084746	right	visual	right	tactile	target	voice	269.664620282	FALSE	FALSE	FALSE	FALSE	TRUE	0	FALSE	TRUE	TRUE
e14	2015	08	04	19	21	f	20	r	32.143152268	4	13	0.462085642037	1.34347779088	right	visual	right	visual	target	voice	341.35869192	FALSE	FALSE	FALSE	FALSE	TRUE	0	FALSE	TRUE	TRUE
e14	2015	08	04	19	21	f	20	r	32.143152268	4	14	0.410206489032	0.838470350167	left	tactile	left	visual	target	voice	194.677623571	FALSE	FALSE	FALSE	FALSE	TRUE	0	FALSE	TRUE	TRUE
e14	2015	08	04	19	21	f	20	r	32.143152268	4	15	0.451736192917	1.26348793248	right	visual	left	tactile	target	voice	209.889565245	FALSE	FALSE	FALSE	FALSE	TRUE	0	FALSE	TRUE	TRUE
e14	2015	08	04	19	21	f	20	r	32.143152268	4	16	0.456073933979	0.859418832891	right	tactile	left	tactile	catch	voice	589.186637779	FALSE	FALSE	FALSE	FALSE	TRUE	0	FALSE	TRUE	TRUE
e14	2015	08	04	19	21	f	20	r	32.143152268	4	17	1.55097727501	0.720629181032	left	visual	right	visual	target	voice	386.566193658	FALSE	FALSE	FALSE	FALSE	TRUE	0	FALSE	TRUE	TRUE
e14	2015	08	04	19	21	f	20	r	32.143152268	4	18	0.487303511938	1.23731436991	left	visual	right	tactile	target	voice	307.529775775	FALSE	FALSE	FALSE	FALSE	TRUE	0	FALSE	TRUE	TRUE
e14	2015	08	04	19	21	f	20	r	32.143152268	4	19	1.79775139096	1.39710253281	right	tactile	left	tactile	target	voice	226.978351944	FALSE	FALSE	FALSE	TRUE	TRUE	0	FALSE	TRUE	TRUE
e14	2015	08	04	19	21	f	20	r	32.143152268	4	20	0.590382868075	0.701029546027	right	visual	left	tactile	target	voice	222.718324745	FALSE	FALSE	FALSE	TRUE	TRUE	0	FALSE	FALSE	TRUE
e14	2015	08	04	19	21	f	20	r	32.143152268	4	21	0.472892359016	1.14872654438	right	tactile	right	visual	target	voice	296.435869299	FALSE	FALSE	FALSE	TRUE	TRUE	0	FALSE	TRUE	TRUE
e14	2015	08	04	19	21	f	20	r	32.143152268	4	22	1.94449801103	0.550940425956	right	visual	left	visual	target	voice	341.830148711	FALSE	FALSE	FALSE	FALSE	TRUE	0	FALSE	TRUE	TRUE
e14	2015	08	04	19	21	f	20	r	32.143152268	4	23	0.672592086019	0.602047745659	left	tactile	right	visual	target	voice	176.845057169	FALSE	FALSE	FALSE	FALSE	TRUE	0	FALSE	TRUE	TRUE
e14	2015	08	04	19	21	f	20	r	32.143152268	4	24	0.786438841955	0.68915441459	right	tactile	left	visual	target	voice	65.1138781104	FALSE	FALSE	FALSE	FALSE	TRUE	0	FALSE	FALSE	TRUE
e14	2015	08	04	19	21	f	20	r	32.143152268	4	25	0.542039256077	0.664764698335	left	tactile	left	visual	target	voice	163.215373293	FALSE	FALSE	FALSE	FALSE	FALSE	0	FALSE	FALSE	TRUE
e14	2015	08	04	19	21	f	20	r	32.143152268	4	26	0.56603888399	1.11400373526	left	visual	left	visual	target	voice	171.806065482	FALSE	FALSE	FALSE	TRUE	TRUE	0	FALSE	TRUE	TRUE
e14	2015	08	04	19	21	f	20	r	32.143152268	4	27	0.516085091047	0.918801426893	right	visual	right	tactile	target	voice	222.774744849	FALSE	FALSE	FALSE	FALSE	TRUE	0	FALSE	TRUE	TRUE
e14	2015	08	04	19	21	f	20	r	32.143152268	4	28	0.40612145199	1.19385844325	right	tactile	right	visual	target	voice	114.210750442	FALSE	FALSE	FALSE	FALSE	TRUE	0	FALSE	TRUE	TRUE
e14	2015	08	04	19	21	f	20	r	32.143152268	4	29	0.540154261049	0.523874099162	left	tactile	left	tactile	target	voice	259.643719648	FALSE	FALSE	FALSE	TRUE	TRUE	0	FALSE	TRUE	TRUE
e14	2015	08	04	19	21	f	20	r	32.143152268	4	30	0.593370807008	1.16795678527	left	visual	left	tactile	target	voice	270.006754319	FALSE	FALSE	FALSE	TRUE	TRUE	0	FALSE	TRUE	TRUE
e14	2015	08	04	19	21	f	20	r	32.143152268	4	31	0.555340446997	1.44092813757	right	tactile	right	tactile	target	voice	63.5212432826	FALSE	FALSE	FALSE	TRUE	TRUE	0	FALSE	TRUE	TRUE
e14	2015	08	04	19	21	f	20	r	32.143152268	4	32	0.470663895016	0.974373502662	left	visual	right	visual	catch	voice	166.74874106	FALSE	FALSE	FALSE	TRUE	TRUE	0	FALSE	TRUE	TRUE
e14	2015	08	04	19	21	f	20	r	32.143152268	4	33	0.555152426008	0.556450069135	right	visual	left	tactile	target	voice	464.415743598	FALSE	FALSE	FALSE	TRUE	TRUE	0	FALSE	TRUE	TRUE
e14	2015	08	04	19	21	f	20	r	32.143152268	4	34	0.569522603997	0.595622758139	right	tactile	right	visual	target	voice	21.5100646019	FALSE	FALSE	FALSE	FALSE	TRUE	0	FALSE	TRUE	TRUE
e14	2015	08	04	19	21	f	20	r	32.143152268	4	35	0.738157987944	1.39678949855	right	tactile	left	visual	target	voice	NA	TRUE	FALSE	FALSE	FALSE	TRUE	0	FALSE	TRUE	FALSE
e14	2015	08	04	19	21	f	20	r	32.143152268	4	36	1.42704346101	0.549963861446	left	tactile	left	visual	target	voice	482.718156185	FALSE	FALSE	FALSE	FALSE	TRUE	0	FALSE	TRUE	TRUE
e14	2015	08	04	19	21	f	20	r	32.143152268	4	37	0.582968608942	0.625761010301	right	visual	right	visual	target	voice	238.922376418	FALSE	FALSE	FALSE	FALSE	FALSE	0	FALSE	FALSE	TRUE
e14	2015	08	04	19	21	f	20	r	32.143152268	4	38	0.532892215997	0.933257681365	left	visual	left	tactile	catch	NA	NA	FALSE	FALSE	FALSE	FALSE	TRUE	0	FALSE	TRUE	TRUE
e14	2015	08	04	19	21	f	20	r	32.143152268	4	39	0.923596150009	1.31986667892	left	visual	left	tactile	target	voice	350.00640084	FALSE	FALSE	FALSE	TRUE	TRUE	0	FALSE	TRUE	TRUE
e14	2015	08	04	19	21	f	20	r	32.143152268	4	40	0.55382289004	1.24844521126	right	tactile	left	tactile	target	voice	235.122399521	FALSE	FALSE	FALSE	FALSE	TRUE	0	FALSE	FALSE	TRUE
e14	2015	08	04	19	21	f	20	r	3.44529892295	4	41	1.08729724598	1.41821265901	right	tactile	left	visual	target	voice	175.665253657	FALSE	FALSE	FALSE	FALSE	TRUE	0	FALSE	TRUE	TRUE
e14	2015	08	04	19	21	f	20	r	3.44529892295	4	42	0.536073528929	1.05570267951	right	visual	right	visual	target	voice	410.961318179	FALSE	FALSE	FALSE	TRUE	TRUE	0	FALSE	FALSE	TRUE
e14	2015	08	04	19	21	f	20	r	3.44529892295	4	43	0.473176753032	0.715875110312	left	tactile	right	visual	target	voice	223.641788354	FALSE	FALSE	FALSE	FALSE	TRUE	0	FALSE	TRUE	TRUE
e14	2015	08	04	19	21	f	20	r	3.44529892295	4	44	0.588223582949	0.568631797206	right	tactile	left	tactile	target	voice	202.084551449	FALSE	FALSE	FALSE	FALSE	FALSE	0	FALSE	FALSE	TRUE
e14	2015	08	04	19	21	f	20	r	3.44529892295	4	45	0.517387520988	0.642730366926	right	tactile	right	tactile	target	voice	122.491012793	FALSE	FALSE	FALSE	FALSE	TRUE	0	FALSE	TRUE	TRUE
e14	2015	08	04	19	21	f	20	r	3.44529892295	4	46	0.500460499083	0.63194592967	left	tactile	left	tactile	target	voice	245.156774065	FALSE	FALSE	FALSE	FALSE	TRUE	0	FALSE	TRUE	TRUE
e14	2015	08	04	19	21	f	20	r	3.44529892295	4	47	0.408510496956	1.18425793558	left	tactile	right	tactile	target	voice	230.418936117	FALSE	FALSE	FALSE	FALSE	TRUE	0	FALSE	TRUE	TRUE
e14	2015	08	04	19	21	f	20	r	3.44529892295	4	48	0.459443825996	0.632314304082	right	tactile	left	tactile	target	voice	136.172668659	FALSE	FALSE	FALSE	FALSE	TRUE	0	FALSE	TRUE	TRUE
e14	2015	08	04	19	21	f	20	r	3.44529892295	4	49	0.468050323077	1.42223386868	left	tactile	right	tactile	target	voice	159.159545205	FALSE	FALSE	FALSE	TRUE	TRUE	0	FALSE	FALSE	TRUE
e14	2015	08	04	19	21	f	20	r	3.44529892295	4	50	0.409116428928	1.35081011665	right	visual	right	tactile	target	voice	364.360188134	FALSE	FALSE	FALSE	FALSE	TRUE	0	FALSE	TRUE	TRUE
e14	2015	08	04	19	21	f	20	r	3.44529892295	4	51	0.47493749205	1.12371586461	right	tactile	right	tactile	target	voice	165.910574025	FALSE	FALSE	FALSE	FALSE	TRUE	0	FALSE	FALSE	TRUE
