id	year	month	day	hour	minute	sex	age	handedness	message_viewing_time	block	trial_num	trial_initiation_time	fixation_duration	cue_location	cue_modality	target_location	target_modality	target_type	target_response_key	target_response_rt	pre_target_response	feedback_response	recalibration	blink	saccade	biggest_small_saccade	critical_blink	critical_saccade	target_started_TF
e16	2015	08	06	09	36	f	21	r	383.004857724	practice	1	2.91471332102	0.948413225282	left	visual	right	tactile	catch	NA	NA	FALSE	FALSE	FALSE	FALSE	FALSE	0	FALSE	FALSE	TRUE
e16	2015	08	06	09	36	f	21	r	383.004857724	practice	2	6.21391248703	1.13437635479	right	visual	right	visual	target	voice	338.076789049	FALSE	FALSE	FALSE	FALSE	FALSE	0	FALSE	FALSE	TRUE
e16	2015	08	06	09	36	f	21	r	383.004857724	practice	3	1.14359337604	1.23899217739	left	visual	right	tactile	target	voice	496.209906298	FALSE	FALSE	FALSE	FALSE	FALSE	0	FALSE	FALSE	TRUE
e16	2015	08	06	09	36	f	21	r	383.004857724	practice	4	0.833770473953	0.903172910499	right	visual	right	tactile	target	voice	NA	TRUE	FALSE	FALSE	FALSE	FALSE	0	FALSE	FALSE	FALSE
e16	2015	08	06	09	36	f	21	r	383.004857724	practice	5	2.00136121002	1.39946182502	left	tactile	right	tactile	target	voice	NA	TRUE	FALSE	FALSE	FALSE	FALSE	0	FALSE	FALSE	FALSE
e16	2015	08	06	09	36	f	21	r	383.004857724	practice	6	0.937741571921	0.524114301691	right	visual	left	visual	target	voice	NA	TRUE	FALSE	FALSE	FALSE	TRUE	0	FALSE	FALSE	FALSE
e16	2015	08	06	09	36	f	21	r	383.004857724	practice	7	0.397474947036	1.10017335952	right	tactile	left	visual	target	voice	NA	TRUE	FALSE	FALSE	FALSE	FALSE	0	FALSE	FALSE	FALSE
e16	2015	08	06	09	36	f	21	r	383.004857724	practice	8	0.458743527997	1.25575737328	right	visual	left	visual	target	voice	NA	TRUE	FALSE	FALSE	FALSE	FALSE	0	FALSE	FALSE	FALSE
e16	2015	08	06	09	36	f	21	r	383.004857724	practice	9	1.08807741897	0.502681740649	left	visual	right	visual	target	voice	269.292716985	FALSE	FALSE	FALSE	FALSE	TRUE	0	FALSE	TRUE	TRUE
e16	2015	08	06	09	36	f	21	r	383.004857724	practice	10	0.403609330067	1.16363485358	left	visual	right	visual	target	voice	468.546544202	FALSE	FALSE	FALSE	FALSE	FALSE	0	FALSE	FALSE	TRUE
e16	2015	08	06	09	36	f	21	r	383.004857724	practice	11	1.18533503497	1.10835951811	left	tactile	left	tactile	target	voice	NA	TRUE	FALSE	FALSE	FALSE	FALSE	0	FALSE	FALSE	FALSE
e16	2015	08	06	09	36	f	21	r	383.004857724	practice	12	0.387753237039	0.509603171304	right	tactile	left	tactile	target	voice	NA	TRUE	FALSE	FALSE	FALSE	TRUE	0	FALSE	TRUE	FALSE
e16	2015	08	06	09	36	f	21	r	383.004857724	practice	13	0.558197846985	1.20323787852	left	visual	left	visual	target	voice	481.642928207	FALSE	FALSE	FALSE	FALSE	TRUE	0	FALSE	TRUE	TRUE
e16	2015	08	06	09	36	f	21	r	383.004857724	practice	14	0.775259083021	0.627585761547	left	visual	left	visual	target	voice	428.903177148	FALSE	FALSE	FALSE	FALSE	TRUE	0	FALSE	TRUE	TRUE
e16	2015	08	06	09	36	f	21	r	383.004857724	practice	15	0.745345652918	0.792410300726	right	visual	right	tactile	target	voice	386.723221978	FALSE	FALSE	FALSE	FALSE	TRUE	0	FALSE	TRUE	TRUE
e16	2015	08	06	09	36	f	21	r	383.004857724	practice	16	0.604816073086	0.539629695996	right	tactile	right	visual	target	voice	820.183509728	FALSE	FALSE	FALSE	FALSE	FALSE	0	FALSE	FALSE	TRUE
e16	2015	08	06	09	36	f	21	r	383.004857724	practice	17	0.473065047991	1.43791903211	left	tactile	left	visual	target	voice	396.289779688	FALSE	FALSE	FALSE	FALSE	TRUE	0	FALSE	TRUE	TRUE
e16	2015	08	06	09	36	f	21	r	383.004857724	practice	18	0.666117660003	1.45982700743	right	visual	left	visual	catch	voice	NA	TRUE	FALSE	FALSE	FALSE	FALSE	0	FALSE	FALSE	FALSE
e16	2015	08	06	09	36	f	21	r	383.004857724	practice	19	0.719166768948	0.739086736686	left	tactile	left	tactile	target	voice	422.732891049	FALSE	FALSE	FALSE	FALSE	TRUE	0	FALSE	TRUE	TRUE
e16	2015	08	06	09	36	f	21	r	383.004857724	practice	20	0.449563041097	1.21618617403	right	tactile	right	tactile	target	voice	NA	TRUE	FALSE	FALSE	FALSE	TRUE	0	FALSE	FALSE	FALSE
e16	2015	08	06	09	36	f	21	r	383.004857724	practice	21	1.39093981998	1.17768446144	left	tactile	left	tactile	target	voice	441.762830247	FALSE	FALSE	FALSE	FALSE	FALSE	0	FALSE	FALSE	TRUE
e16	2015	08	06	09	36	f	21	r	383.004857724	practice	22	1.50252588897	1.41667913991	left	tactile	right	tactile	catch	NA	NA	FALSE	FALSE	FALSE	FALSE	FALSE	0	FALSE	FALSE	TRUE
e16	2015	08	06	09	36	f	21	r	383.004857724	practice	23	0.74552378396	0.967130696903	left	tactile	right	visual	target	voice	519.895077799	FALSE	FALSE	FALSE	FALSE	TRUE	0	FALSE	FALSE	TRUE
e16	2015	08	06	09	36	f	21	r	383.004857724	practice	24	1.07867822098	1.40650190422	left	visual	left	tactile	target	voice	599.91352947	FALSE	FALSE	FALSE	FALSE	FALSE	0	FALSE	FALSE	TRUE
e16	2015	08	06	09	36	f	21	r	383.004857724	practice	25	0.58731843601	0.610334929181	right	tactile	left	tactile	target	voice	331.752559519	FALSE	FALSE	FALSE	FALSE	TRUE	0	FALSE	FALSE	TRUE
e16	2015	08	06	09	36	f	21	r	383.004857724	practice	26	0.42241862393	1.00547605045	right	visual	left	tactile	target	voice	358.78247919	FALSE	FALSE	FALSE	FALSE	TRUE	0	FALSE	FALSE	TRUE
e16	2015	08	06	09	36	f	21	r	383.004857724	practice	27	0.700361151947	1.17384094056	left	tactile	left	visual	target	voice	556.428755051	FALSE	FALSE	FALSE	FALSE	FALSE	0	FALSE	FALSE	TRUE
e16	2015	08	06	09	36	f	21	r	383.004857724	practice	28	0.754516402958	1.0749855584	left	tactile	right	tactile	target	voice	393.753582379	FALSE	FALSE	FALSE	FALSE	FALSE	0	FALSE	FALSE	TRUE
e16	2015	08	06	09	36	f	21	r	383.004857724	practice	29	0.678671803093	1.12515883666	right	visual	left	visual	target	voice	518.815947114	FALSE	FALSE	FALSE	FALSE	FALSE	0	FALSE	FALSE	TRUE
e16	2015	08	06	09	36	f	21	r	383.004857724	practice	30	0.559962752042	0.622491557107	right	visual	left	visual	target	voice	463.4733696	FALSE	FALSE	FALSE	FALSE	TRUE	0	FALSE	FALSE	TRUE
e16	2015	08	06	09	36	f	21	r	383.004857724	practice	31	0.765748869977	0.961967572729	left	visual	right	tactile	target	voice	NA	TRUE	FALSE	FALSE	FALSE	FALSE	0	FALSE	FALSE	FALSE
e16	2015	08	06	09	36	f	21	r	383.004857724	practice	32	0.418864647974	1.29912114037	right	visual	right	visual	target	voice	NA	TRUE	FALSE	FALSE	FALSE	FALSE	0	FALSE	FALSE	FALSE
e16	2015	08	06	09	36	f	21	r	383.004857724	practice	33	0.727343122009	1.32822435516	right	tactile	left	tactile	target	voice	703.077715589	FALSE	FALSE	FALSE	FALSE	TRUE	0	FALSE	FALSE	TRUE
e16	2015	08	06	09	36	f	21	r	383.004857724	practice	34	0.868433617987	0.792742964253	right	tactile	right	tactile	target	voice	442.19980354	FALSE	FALSE	FALSE	FALSE	TRUE	0	FALSE	FALSE	TRUE
e16	2015	08	06	09	36	f	21	r	383.004857724	practice	35	0.402893229038	0.995101350201	left	tactile	right	visual	target	voice	533.175618388	FALSE	FALSE	FALSE	FALSE	TRUE	0	FALSE	FALSE	TRUE
e16	2015	08	06	09	36	f	21	r	383.004857724	practice	36	0.400998258032	1.47704456994	right	tactile	left	visual	catch	NA	NA	FALSE	FALSE	FALSE	FALSE	TRUE	0	FALSE	FALSE	TRUE
e16	2015	08	06	09	36	f	21	r	383.004857724	practice	37	0.863115084008	0.690457324881	right	tactile	right	visual	target	voice	740.838544909	FALSE	FALSE	FALSE	FALSE	TRUE	0	FALSE	FALSE	TRUE
e16	2015	08	06	09	36	f	21	r	383.004857724	practice	38	0.408551652916	0.688055722589	right	visual	left	visual	target	voice	508.338978048	FALSE	FALSE	FALSE	FALSE	TRUE	0	FALSE	FALSE	TRUE
e16	2015	08	06	09	36	f	21	r	383.004857724	practice	39	0.401011887006	0.812757072341	right	visual	left	tactile	target	voice	NA	TRUE	FALSE	FALSE	FALSE	FALSE	0	FALSE	FALSE	FALSE
e16	2015	08	06	09	36	f	21	r	383.004857724	practice	40	0.757974398904	1.21367653748	left	visual	left	visual	target	voice	NA	TRUE	FALSE	FALSE	FALSE	FALSE	0	FALSE	FALSE	FALSE
e16	2015	08	06	09	36	f	21	r	38.187125116	1	1	3.35123733408	1.4369738983	right	visual	left	visual	target	voice	562.750270474	FALSE	FALSE	FALSE	FALSE	FALSE	0	FALSE	FALSE	TRUE
e16	2015	08	06	09	36	f	21	r	38.187125116	1	2	2.32196696196	0.581507448205	right	tactile	right	visual	target	voice	580.893729464	FALSE	FALSE	FALSE	FALSE	FALSE	0	FALSE	FALSE	TRUE
e16	2015	08	06	09	36	f	21	r	38.187125116	1	3	0.625536773005	1.39586847996	right	visual	left	tactile	target	voice	532.7933277	FALSE	FALSE	FALSE	FALSE	TRUE	0	FALSE	FALSE	TRUE
e16	2015	08	06	09	36	f	21	r	38.187125116	1	4	0.574761935975	1.32284195933	right	tactile	left	visual	target	voice	508.962991415	FALSE	FALSE	FALSE	FALSE	FALSE	0	FALSE	FALSE	TRUE
e16	2015	08	06	09	36	f	21	r	38.187125116	1	5	0.489807377919	0.609074501725	left	visual	right	visual	target	voice	403.230850003	FALSE	FALSE	FALSE	FALSE	FALSE	0	FALSE	FALSE	TRUE
e16	2015	08	06	09	36	f	21	r	38.187125116	1	6	0.555064095999	0.74482822705	right	tactile	right	tactile	target	voice	593.456588569	FALSE	FALSE	FALSE	FALSE	FALSE	0	FALSE	FALSE	TRUE
e16	2015	08	06	09	36	f	21	r	38.187125116	1	7	0.544505776954	1.03719222036	left	tactile	right	tactile	target	voice	643.276650342	FALSE	FALSE	FALSE	FALSE	TRUE	0	FALSE	FALSE	TRUE
e16	2015	08	06	09	36	f	21	r	38.187125116	1	8	0.513766327989	0.765229847164	right	visual	right	visual	target	voice	573.66673951	FALSE	FALSE	FALSE	FALSE	FALSE	0	FALSE	FALSE	TRUE
e16	2015	08	06	09	36	f	21	r	38.187125116	1	9	1.99149260705	1.08642729655	right	visual	right	tactile	target	voice	458.084052196	FALSE	FALSE	FALSE	FALSE	FALSE	0	FALSE	FALSE	TRUE
e16	2015	08	06	09	36	f	21	r	38.187125116	1	10	0.488249262911	0.712147798368	left	visual	right	tactile	target	voice	514.516402269	FALSE	FALSE	FALSE	FALSE	TRUE	0	FALSE	TRUE	TRUE
e16	2015	08	06	09	36	f	21	r	38.187125116	1	11	0.535261674086	1.06904142116	right	tactile	left	visual	target	voice	494.428502512	FALSE	FALSE	FALSE	FALSE	FALSE	0	FALSE	FALSE	TRUE
e16	2015	08	06	09	36	f	21	r	38.187125116	1	12	0.410693023936	1.34734545635	left	tactile	right	tactile	target	voice	782.070065383	FALSE	FALSE	FALSE	TRUE	TRUE	0	FALSE	FALSE	TRUE
e16	2015	08	06	09	36	f	21	r	38.187125116	1	13	0.43189425196	1.34623711481	left	tactile	right	tactile	target	voice	624.284660909	FALSE	FALSE	FALSE	FALSE	TRUE	0	FALSE	FALSE	TRUE
e16	2015	08	06	09	36	f	21	r	38.187125116	1	14	0.401033900911	1.42212705964	left	tactile	right	tactile	catch	NA	NA	FALSE	FALSE	FALSE	FALSE	TRUE	0	FALSE	FALSE	TRUE
e16	2015	08	06	09	36	f	21	r	38.187125116	1	15	0.880342686083	1.01851741593	right	visual	left	visual	target	voice	621.067437809	FALSE	FALSE	FALSE	FALSE	TRUE	0	FALSE	FALSE	TRUE
e16	2015	08	06	09	36	f	21	r	38.187125116	1	16	0.631760936929	1.35371446694	left	visual	right	visual	catch	NA	NA	FALSE	FALSE	FALSE	FALSE	FALSE	0	FALSE	FALSE	TRUE
e16	2015	08	06	09	36	f	21	r	38.187125116	1	17	1.07988559001	0.870519585358	right	visual	left	tactile	target	voice	710.666528321	FALSE	FALSE	FALSE	FALSE	FALSE	0	FALSE	FALSE	TRUE
e16	2015	08	06	09	36	f	21	r	38.187125116	1	18	0.559813573956	1.21396611751	right	tactile	left	visual	target	NA	NA	FALSE	FALSE	FALSE	FALSE	FALSE	0	FALSE	FALSE	TRUE
e16	2015	08	06	09	36	f	21	r	38.187125116	1	19	0.739341827924	1.41055072077	left	visual	left	tactile	target	voice	538.608118892	FALSE	FALSE	FALSE	FALSE	FALSE	0	FALSE	FALSE	TRUE
e16	2015	08	06	09	36	f	21	r	38.187125116	1	20	0.399505723035	1.08558078864	right	visual	right	visual	target	voice	612.383487984	FALSE	FALSE	FALSE	FALSE	FALSE	0	FALSE	FALSE	TRUE
e16	2015	08	06	09	36	f	21	r	38.187125116	1	21	0.483280509012	0.740989626292	left	visual	left	tactile	catch	NA	NA	FALSE	FALSE	FALSE	FALSE	TRUE	0	FALSE	FALSE	TRUE
e16	2015	08	06	09	36	f	21	r	38.187125116	1	22	0.650741843041	1.26193789077	right	tactile	right	visual	target	voice	NA	TRUE	FALSE	FALSE	FALSE	TRUE	0	FALSE	FALSE	FALSE
e16	2015	08	06	09	36	f	21	r	38.187125116	1	23	0.760262213065	0.985498802552	right	tactile	left	visual	target	voice	744.318799116	FALSE	FALSE	FALSE	FALSE	TRUE	0	FALSE	TRUE	TRUE
e16	2015	08	06	09	36	f	21	r	38.187125116	1	24	0.769990017987	1.3182780216	right	tactile	left	tactile	target	voice	549.165467033	FALSE	FALSE	FALSE	FALSE	TRUE	0	FALSE	FALSE	TRUE
e16	2015	08	06	09	36	f	21	r	38.187125116	1	25	0.509065883001	0.656714061662	right	tactile	right	tactile	catch	NA	NA	FALSE	FALSE	FALSE	FALSE	FALSE	0	FALSE	FALSE	TRUE
e16	2015	08	06	09	36	f	21	r	38.187125116	1	26	0.840026892954	1.13148583764	right	tactile	right	visual	target	voice	519.184017088	FALSE	FALSE	FALSE	FALSE	FALSE	0	FALSE	FALSE	TRUE
e16	2015	08	06	09	36	f	21	r	38.187125116	1	27	1.62177336705	1.08109130135	left	tactile	left	visual	target	voice	513.654876268	FALSE	FALSE	FALSE	FALSE	TRUE	0	FALSE	FALSE	TRUE
e16	2015	08	06	09	36	f	21	r	38.187125116	1	28	0.414883518009	1.43006278524	left	visual	left	tactile	target	voice	NA	TRUE	FALSE	FALSE	FALSE	TRUE	0	FALSE	FALSE	FALSE
e16	2015	08	06	09	36	f	21	r	38.187125116	1	29	1.24973395199	0.975715160962	right	visual	right	tactile	target	voice	412.712213816	FALSE	FALSE	FALSE	FALSE	FALSE	0	FALSE	FALSE	TRUE
e16	2015	08	06	09	36	f	21	r	38.187125116	1	30	0.414111347054	1.00327799097	right	tactile	left	visual	target	voice	425.94957375	FALSE	FALSE	FALSE	FALSE	FALSE	0	FALSE	FALSE	TRUE
e16	2015	08	06	09	36	f	21	r	38.187125116	1	31	0.390134765999	0.681327914291	left	visual	right	visual	target	voice	473.213354475	FALSE	FALSE	FALSE	FALSE	TRUE	0	FALSE	FALSE	TRUE
e16	2015	08	06	09	36	f	21	r	38.187125116	1	32	0.404135840014	0.733139075591	left	visual	right	tactile	target	voice	407.60759206	FALSE	FALSE	FALSE	FALSE	FALSE	0	FALSE	FALSE	TRUE
e16	2015	08	06	09	36	f	21	r	38.187125116	1	33	0.415182015975	1.13750507356	left	tactile	left	visual	target	voice	580.364821129	FALSE	FALSE	FALSE	FALSE	FALSE	0	FALSE	FALSE	TRUE
e16	2015	08	06	09	36	f	21	r	38.187125116	1	34	1.29074075096	1.05640143992	left	visual	left	visual	target	voice	488.079030765	FALSE	FALSE	FALSE	FALSE	TRUE	0	FALSE	FALSE	TRUE
e16	2015	08	06	09	36	f	21	r	38.187125116	1	35	0.435658415896	1.36998319505	left	visual	right	tactile	target	voice	357.270026696	FALSE	FALSE	FALSE	FALSE	TRUE	0	FALSE	FALSE	TRUE
e16	2015	08	06	09	36	f	21	r	38.187125116	1	36	0.45179193106	0.751308860033	left	visual	right	tactile	target	voice	359.481802676	FALSE	FALSE	FALSE	FALSE	TRUE	0	FALSE	FALSE	TRUE
e16	2015	08	06	09	36	f	21	r	38.187125116	1	37	1.31760198507	0.951868724879	left	visual	right	tactile	target	voice	526.544068824	FALSE	FALSE	FALSE	FALSE	FALSE	0	FALSE	FALSE	TRUE
e16	2015	08	06	09	36	f	21	r	38.187125116	1	38	0.567488480941	0.788347671826	right	visual	left	visual	catch	NA	NA	FALSE	FALSE	FALSE	FALSE	TRUE	0	FALSE	FALSE	TRUE
e16	2015	08	06	09	36	f	21	r	38.187125116	1	39	0.954550915048	1.30456009127	right	visual	right	visual	target	voice	545.822039479	FALSE	FALSE	FALSE	FALSE	FALSE	0	FALSE	FALSE	TRUE
e16	2015	08	06	09	36	f	21	r	38.187125116	1	40	0.406424749992	1.372386501	left	visual	right	visual	target	voice	401.190550765	FALSE	FALSE	FALSE	FALSE	TRUE	0	FALSE	FALSE	TRUE
e16	2015	08	06	09	36	f	21	r	12.267526492	1	41	2.804239508	0.548253886121	left	tactile	left	visual	target	voice	458.166205557	FALSE	FALSE	FALSE	FALSE	FALSE	0	FALSE	FALSE	TRUE
e16	2015	08	06	09	36	f	21	r	12.267526492	1	42	0.40372863994	0.771538654331	right	tactile	left	tactile	target	voice	91.0578113981	FALSE	FALSE	FALSE	FALSE	FALSE	0	FALSE	FALSE	TRUE
e16	2015	08	06	09	36	f	21	r	12.267526492	1	43	1.01845194295	0.569853059346	left	visual	left	visual	target	voice	502.804103307	FALSE	FALSE	FALSE	FALSE	FALSE	0	FALSE	FALSE	TRUE
e16	2015	08	06	09	36	f	21	r	12.267526492	1	44	3.41787192598	0.730755960399	right	visual	right	visual	target	voice	323.190126219	FALSE	FALSE	FALSE	FALSE	FALSE	0	FALSE	FALSE	TRUE
e16	2015	08	06	09	36	f	21	r	12.267526492	1	45	1.47652323009	0.825909810506	right	tactile	right	visual	target	voice	496.26647518	FALSE	FALSE	FALSE	FALSE	TRUE	0	FALSE	FALSE	TRUE
e16	2015	08	06	09	36	f	21	r	12.267526492	1	46	0.43564251496	1.29007755565	left	visual	right	visual	target	voice	335.844606045	FALSE	FALSE	FALSE	FALSE	FALSE	0	FALSE	FALSE	TRUE
e16	2015	08	06	09	36	f	21	r	12.267526492	1	47	1.18397620495	1.24189065157	left	tactile	left	tactile	target	voice	528.744027135	FALSE	FALSE	FALSE	FALSE	TRUE	0	FALSE	TRUE	TRUE
e16	2015	08	06	09	36	f	21	r	12.267526492	1	48	0.44563592202	1.41237691338	right	tactile	right	tactile	target	voice	353.325502365	FALSE	FALSE	FALSE	FALSE	FALSE	0	FALSE	FALSE	TRUE
e16	2015	08	06	09	36	f	21	r	12.267526492	1	49	1.57929203508	1.17095740142	left	visual	left	visual	target	voice	424.623878323	FALSE	FALSE	FALSE	FALSE	FALSE	0	FALSE	FALSE	TRUE
e16	2015	08	06	09	36	f	21	r	12.267526492	1	50	0.405209406046	0.821258797551	left	tactile	left	tactile	target	voice	488.32602019	FALSE	FALSE	FALSE	FALSE	TRUE	0	FALSE	FALSE	TRUE
e16	2015	08	06	09	36	f	21	r	12.267526492	1	51	0.711219585966	1.32388314228	left	visual	left	tactile	target	voice	NA	TRUE	FALSE	FALSE	FALSE	TRUE	0	FALSE	FALSE	FALSE
e16	2015	08	06	09	36	f	21	r	12.267526492	1	52	0.883834302076	1.14188842721	left	visual	right	visual	target	voice	375.337203499	FALSE	FALSE	FALSE	FALSE	TRUE	0	FALSE	TRUE	TRUE
e16	2015	08	06	09	36	f	21	r	12.267526492	1	53	0.421889802092	1.03079329284	left	visual	right	tactile	target	voice	416.035479866	FALSE	FALSE	FALSE	FALSE	TRUE	0	FALSE	FALSE	TRUE
e16	2015	08	06	09	36	f	21	r	12.267526492	1	54	0.434370312956	1.03390925347	left	tactile	left	tactile	target	voice	713.730344316	FALSE	FALSE	FALSE	FALSE	FALSE	0	FALSE	FALSE	TRUE
e16	2015	08	06	09	36	f	21	r	12.267526492	1	55	2.30376745609	1.21611465304	left	visual	left	visual	target	voice	442.545440746	FALSE	FALSE	FALSE	FALSE	FALSE	0	FALSE	FALSE	TRUE
e16	2015	08	06	09	36	f	21	r	12.267526492	1	56	0.402825206984	1.1780811692	left	tactile	left	tactile	target	voice	450.007243548	FALSE	FALSE	FALSE	FALSE	TRUE	0	FALSE	FALSE	TRUE
e16	2015	08	06	09	36	f	21	r	12.267526492	1	57	0.391789176036	0.587666604293	right	tactile	left	tactile	target	voice	350.043032435	FALSE	FALSE	FALSE	FALSE	FALSE	0	FALSE	FALSE	TRUE
e16	2015	08	06	09	36	f	21	r	12.267526492	1	58	0.400548504083	0.588816599323	right	tactile	left	tactile	target	voice	382.850210415	FALSE	FALSE	FALSE	FALSE	TRUE	0	FALSE	FALSE	TRUE
e16	2015	08	06	09	36	f	21	r	12.267526492	1	59	1.69349344901	1.11125267478	left	tactile	left	tactile	target	voice	505.094527849	FALSE	FALSE	FALSE	FALSE	FALSE	0	FALSE	FALSE	TRUE
e16	2015	08	06	09	36	f	21	r	12.267526492	1	60	2.50453211099	1.25088099755	left	tactile	right	tactile	target	voice	361.080834176	FALSE	FALSE	FALSE	FALSE	FALSE	0	FALSE	FALSE	TRUE
e16	2015	08	06	09	36	f	21	r	12.267526492	1	61	0.638701616903	0.500425110708	left	tactile	right	visual	target	voice	454.976189998	FALSE	FALSE	FALSE	FALSE	FALSE	0	FALSE	FALSE	TRUE
e16	2015	08	06	09	36	f	21	r	12.267526492	1	62	0.40153350099	1.47758716005	right	visual	left	visual	target	voice	NA	TRUE	FALSE	FALSE	FALSE	TRUE	0	FALSE	FALSE	FALSE
e16	2015	08	06	09	36	f	21	r	12.267526492	1	63	1.04938665696	0.930779359378	left	tactile	right	visual	target	voice	486.584420316	FALSE	FALSE	FALSE	FALSE	TRUE	0	FALSE	FALSE	TRUE
e16	2015	08	06	09	36	f	21	r	12.267526492	1	64	0.701009276905	0.531719980563	right	tactile	right	visual	target	NA	NA	FALSE	FALSE	FALSE	FALSE	FALSE	0	FALSE	FALSE	TRUE
e16	2015	08	06	09	36	f	21	r	12.267526492	1	65	0.832517122035	0.941600936896	left	visual	right	visual	target	voice	256.374519784	FALSE	FALSE	FALSE	TRUE	TRUE	0	FALSE	FALSE	TRUE
e16	2015	08	06	09	36	f	21	r	12.267526492	1	66	0.398252918036	1.40365799581	right	visual	right	visual	catch	NA	NA	FALSE	FALSE	FALSE	FALSE	TRUE	0	FALSE	FALSE	TRUE
e16	2015	08	06	09	36	f	21	r	12.267526492	1	67	0.63303827995	0.861656960423	right	visual	right	tactile	catch	NA	NA	FALSE	FALSE	FALSE	FALSE	FALSE	0	FALSE	FALSE	TRUE
e16	2015	08	06	09	36	f	21	r	12.267526492	1	68	0.694836337003	1.18799322135	left	tactile	left	visual	target	voice	509.54683742	FALSE	FALSE	FALSE	FALSE	FALSE	0	FALSE	FALSE	TRUE
e16	2015	08	06	09	36	f	21	r	12.267526492	1	69	0.418823961052	0.621439910805	right	tactile	right	tactile	target	voice	510.551670915	FALSE	FALSE	FALSE	TRUE	TRUE	0	TRUE	TRUE	TRUE
e16	2015	08	06	09	36	f	21	r	12.267526492	1	70	0.406522988924	1.46180692897	right	tactile	left	tactile	target	voice	837.715024827	FALSE	FALSE	FALSE	FALSE	TRUE	0	FALSE	FALSE	TRUE
e16	2015	08	06	09	36	f	21	r	12.267526492	1	71	0.399637800059	0.65744748193	right	tactile	left	tactile	target	voice	368.548487895	FALSE	FALSE	FALSE	FALSE	TRUE	0	FALSE	FALSE	TRUE
e16	2015	08	06	09	36	f	21	r	12.267526492	1	72	1.12035519606	0.747214573152	left	visual	right	visual	target	voice	353.776642587	FALSE	FALSE	FALSE	FALSE	FALSE	0	FALSE	FALSE	TRUE
e16	2015	08	06	09	36	f	21	r	12.267526492	1	73	1.56191055896	0.809174207301	right	visual	left	visual	target	voice	571.253567468	FALSE	FALSE	FALSE	FALSE	TRUE	0	FALSE	FALSE	TRUE
e16	2015	08	06	09	36	f	21	r	12.267526492	1	74	3.1603376019	0.978334961417	right	tactile	right	tactile	target	voice	542.888718192	FALSE	FALSE	FALSE	FALSE	FALSE	0	FALSE	FALSE	TRUE
e16	2015	08	06	09	36	f	21	r	12.267526492	1	75	2.14089222194	1.26451008049	right	tactile	right	tactile	target	voice	578.722906299	FALSE	FALSE	FALSE	FALSE	FALSE	0	FALSE	FALSE	TRUE
e16	2015	08	06	09	36	f	21	r	12.267526492	1	76	0.410315832938	1.09389303102	right	tactile	right	visual	target	voice	459.577470669	FALSE	FALSE	FALSE	FALSE	TRUE	0	FALSE	FALSE	TRUE
e16	2015	08	06	09	36	f	21	r	12.267526492	1	77	0.417416289099	1.13903470208	right	visual	right	visual	target	voice	477.798749576	FALSE	FALSE	FALSE	TRUE	TRUE	0	FALSE	FALSE	TRUE
e16	2015	08	06	09	36	f	21	r	12.267526492	1	78	0.490284621948	1.03964427073	left	tactile	right	visual	target	voice	453.771988861	FALSE	FALSE	FALSE	FALSE	FALSE	0	FALSE	FALSE	TRUE
e16	2015	08	06	09	36	f	21	r	12.267526492	1	79	0.407976096962	0.512235892877	left	tactile	left	visual	catch	NA	NA	FALSE	FALSE	FALSE	FALSE	FALSE	0	FALSE	FALSE	TRUE
e16	2015	08	06	09	36	f	21	r	12.267526492	1	80	1.19527754805	1.15692394477	right	visual	right	tactile	target	voice	348.91334211	FALSE	FALSE	FALSE	FALSE	FALSE	0	FALSE	FALSE	TRUE
e16	2015	08	06	09	36	f	21	r	8.38029983803	1	81	4.90924866498	0.917108270669	right	visual	right	visual	target	voice	501.669785124	FALSE	FALSE	FALSE	FALSE	FALSE	0	FALSE	FALSE	TRUE
e16	2015	08	06	09	36	f	21	r	8.38029983803	1	82	0.470077113947	1.4346889366	right	visual	left	visual	target	voice	407.448005164	FALSE	FALSE	FALSE	FALSE	FALSE	0	FALSE	FALSE	TRUE
e16	2015	08	06	09	36	f	21	r	8.38029983803	1	83	0.570348519017	1.34319315508	left	visual	right	visual	target	voice	474.311605562	FALSE	FALSE	FALSE	FALSE	TRUE	0	FALSE	FALSE	TRUE
e16	2015	08	06	09	36	f	21	r	8.38029983803	1	84	0.450857748045	1.20345575423	right	visual	left	visual	target	voice	659.271915443	FALSE	FALSE	FALSE	FALSE	FALSE	0	FALSE	FALSE	TRUE
e16	2015	08	06	09	36	f	21	r	8.38029983803	1	85	0.720631644013	0.989433633344	left	tactile	left	visual	target	voice	751.980380388	FALSE	FALSE	FALSE	FALSE	TRUE	0	FALSE	FALSE	TRUE
e16	2015	08	06	09	36	f	21	r	8.38029983803	1	86	0.495237200987	1.34069908703	right	visual	left	visual	target	voice	508.114892757	FALSE	FALSE	FALSE	FALSE	TRUE	0	FALSE	FALSE	TRUE
e16	2015	08	06	09	36	f	21	r	8.38029983803	1	87	0.662964017014	1.46870618548	left	visual	right	tactile	target	voice	540.354116238	FALSE	FALSE	FALSE	FALSE	TRUE	0	FALSE	FALSE	TRUE
e16	2015	08	06	09	36	f	21	r	8.38029983803	1	88	0.403374491027	1.07901979289	right	visual	left	tactile	target	voice	581.318567973	FALSE	FALSE	FALSE	FALSE	FALSE	0	FALSE	FALSE	TRUE
e16	2015	08	06	09	36	f	21	r	8.38029983803	1	89	0.497858304065	0.530440262077	right	tactile	right	visual	target	voice	865.813714685	FALSE	FALSE	FALSE	FALSE	TRUE	0	FALSE	TRUE	TRUE
e16	2015	08	06	09	36	f	21	r	8.38029983803	1	90	0.402287393925	0.97982013432	left	visual	left	visual	catch	NA	NA	FALSE	FALSE	FALSE	FALSE	TRUE	0	FALSE	FALSE	TRUE
e16	2015	08	06	09	36	f	21	r	8.38029983803	1	91	0.91598401207	0.904423256181	left	visual	left	visual	target	voice	694.113899604	FALSE	FALSE	FALSE	FALSE	FALSE	0	FALSE	FALSE	TRUE
e16	2015	08	06	09	36	f	21	r	8.38029983803	1	92	0.455953445053	1.20910215315	left	tactile	right	visual	target	voice	577.24248548	FALSE	FALSE	FALSE	FALSE	TRUE	0	FALSE	FALSE	TRUE
e16	2015	08	06	09	36	f	21	r	8.38029983803	1	93	0.396725447034	1.11757291487	right	visual	left	tactile	target	voice	531.975212856	FALSE	FALSE	FALSE	FALSE	TRUE	0	FALSE	FALSE	TRUE
e16	2015	08	06	09	36	f	21	r	8.38029983803	1	94	0.384627671912	0.611539668115	left	visual	left	tactile	target	voice	446.849666536	FALSE	FALSE	FALSE	FALSE	FALSE	0	FALSE	FALSE	TRUE
e16	2015	08	06	09	36	f	21	r	8.38029983803	1	95	0.393544640974	0.914113009937	right	visual	right	visual	target	voice	620.10952679	FALSE	FALSE	FALSE	FALSE	FALSE	0	FALSE	FALSE	TRUE
e16	2015	08	06	09	36	f	21	r	8.38029983803	1	96	1.19466600195	0.903721796171	left	tactile	left	visual	target	voice	504.57014062	FALSE	FALSE	FALSE	FALSE	TRUE	0	FALSE	TRUE	TRUE
e16	2015	08	06	09	36	f	21	r	8.38029983803	1	97	0.39411535894	1.00521457414	left	tactile	left	visual	target	voice	464.168078615	FALSE	FALSE	FALSE	FALSE	TRUE	0	FALSE	FALSE	TRUE
e16	2015	08	06	09	36	f	21	r	8.38029983803	1	98	0.399924999918	0.676375615879	left	tactile	right	tactile	target	voice	508.209971827	FALSE	FALSE	FALSE	FALSE	TRUE	0	FALSE	TRUE	TRUE
e16	2015	08	06	09	36	f	21	r	8.38029983803	1	99	0.403850125032	1.40736506382	right	visual	left	tactile	target	voice	333.200814901	FALSE	FALSE	FALSE	FALSE	FALSE	0	FALSE	FALSE	TRUE
e16	2015	08	06	09	36	f	21	r	8.38029983803	1	100	0.407511095051	0.911324347968	right	tactile	right	visual	target	voice	467.211319832	FALSE	FALSE	FALSE	FALSE	FALSE	0	FALSE	FALSE	TRUE
e16	2015	08	06	09	36	f	21	r	8.38029983803	1	101	1.28492811904	1.39508688088	left	tactile	left	tactile	target	voice	892.321539926	FALSE	FALSE	FALSE	FALSE	TRUE	0	FALSE	FALSE	TRUE
e16	2015	08	06	09	36	f	21	r	8.38029983803	1	102	0.398637773003	1.15339013577	left	visual	right	visual	target	voice	343.028250965	FALSE	FALSE	FALSE	FALSE	FALSE	0	FALSE	FALSE	TRUE
e16	2015	08	06	09	36	f	21	r	8.38029983803	1	103	0.385922541027	1.43563844003	right	tactile	left	tactile	target	NA	NA	FALSE	FALSE	FALSE	FALSE	TRUE	0	FALSE	FALSE	TRUE
e16	2015	08	06	09	36	f	21	r	8.38029983803	1	104	0.980560451979	0.902300674809	left	tactile	right	visual	catch	NA	NA	FALSE	FALSE	FALSE	FALSE	FALSE	0	FALSE	FALSE	TRUE
e16	2015	08	06	09	36	f	21	r	8.38029983803	1	105	0.648281730944	0.928255237688	left	tactile	right	visual	target	voice	541.134210071	FALSE	FALSE	FALSE	FALSE	FALSE	0	FALSE	FALSE	TRUE
e16	2015	08	06	09	36	f	21	r	8.38029983803	1	106	0.397348080995	0.923639661636	left	visual	left	tactile	target	voice	563.257409027	FALSE	FALSE	FALSE	FALSE	TRUE	0	FALSE	TRUE	TRUE
e16	2015	08	06	09	36	f	21	r	8.38029983803	1	107	0.410431041033	0.72807880785	left	tactile	left	visual	target	voice	719.237359939	FALSE	FALSE	FALSE	FALSE	FALSE	0	FALSE	FALSE	TRUE
e16	2015	08	06	09	36	f	21	r	8.38029983803	1	108	0.392575845006	1.16124337265	right	visual	right	visual	target	voice	455.620372202	FALSE	FALSE	FALSE	FALSE	TRUE	0	FALSE	FALSE	TRUE
e16	2015	08	06	09	36	f	21	r	8.38029983803	1	109	1.51338886807	1.2654810627	left	visual	right	tactile	target	voice	377.770718071	FALSE	FALSE	FALSE	FALSE	FALSE	0	FALSE	FALSE	TRUE
e16	2015	08	06	09	36	f	21	r	8.38029983803	1	110	0.435683893971	1.15460521529	left	tactile	right	visual	target	voice	429.910475505	FALSE	FALSE	FALSE	TRUE	TRUE	0	FALSE	FALSE	TRUE
e16	2015	08	06	09	36	f	21	r	8.38029983803	1	111	0.982895315974	0.823086913661	right	tactile	left	visual	target	voice	466.879940126	FALSE	FALSE	FALSE	FALSE	TRUE	0	FALSE	FALSE	TRUE
e16	2015	08	06	09	36	f	21	r	8.38029983803	1	112	0.440782788093	0.860924194743	right	tactile	left	tactile	target	voice	437.488679891	FALSE	FALSE	FALSE	FALSE	TRUE	0	FALSE	TRUE	TRUE
e16	2015	08	06	09	36	f	21	r	8.38029983803	1	113	0.405749785947	1.18379558968	right	tactile	right	tactile	target	voice	386.363103054	FALSE	FALSE	FALSE	FALSE	TRUE	0	FALSE	FALSE	TRUE
e16	2015	08	06	09	36	f	21	r	8.38029983803	1	114	0.410039047012	0.594402451361	right	tactile	right	tactile	target	voice	321.945108357	FALSE	FALSE	FALSE	FALSE	TRUE	0	FALSE	TRUE	TRUE
e16	2015	08	06	09	36	f	21	r	8.38029983803	1	115	0.919015449937	1.085198816	left	visual	left	tactile	target	voice	443.840701715	FALSE	FALSE	FALSE	FALSE	TRUE	0	FALSE	FALSE	TRUE
e16	2015	08	06	09	36	f	21	r	8.38029983803	1	116	0.730468853028	0.589424182432	right	tactile	right	visual	target	voice	734.077719273	FALSE	FALSE	FALSE	FALSE	FALSE	0	FALSE	FALSE	TRUE
e16	2015	08	06	09	36	f	21	r	8.38029983803	1	117	0.424348892993	1.32172228155	right	tactile	left	tactile	catch	NA	NA	FALSE	FALSE	FALSE	FALSE	TRUE	0	FALSE	FALSE	TRUE
e16	2015	08	06	09	36	f	21	r	8.38029983803	1	118	0.954710684018	0.508646686371	left	visual	left	visual	target	voice	872.462655418	FALSE	FALSE	FALSE	FALSE	TRUE	0	FALSE	TRUE	TRUE
e16	2015	08	06	09	36	f	21	r	8.38029983803	1	119	0.521249319077	1.37562325852	right	tactile	right	visual	catch	NA	NA	FALSE	FALSE	FALSE	FALSE	FALSE	0	FALSE	FALSE	TRUE
e16	2015	08	06	09	36	f	21	r	8.38029983803	1	120	3.18555260298	0.770661546051	right	tactile	right	tactile	target	voice	514.588752761	FALSE	FALSE	FALSE	FALSE	FALSE	0	FALSE	FALSE	TRUE
e16	2015	08	06	09	36	f	21	r	11.8273043579	1	121	1.50827669702	1.48801870577	right	visual	right	visual	target	voice	290.013241931	FALSE	FALSE	FALSE	FALSE	FALSE	0	FALSE	FALSE	TRUE
e16	2015	08	06	09	36	f	21	r	11.8273043579	1	122	0.514634702005	0.834621063308	left	tactile	right	tactile	target	voice	326.792915352	FALSE	FALSE	FALSE	FALSE	FALSE	0	FALSE	FALSE	TRUE
e16	2015	08	06	09	36	f	21	r	11.8273043579	1	123	0.441950840992	1.12805996411	right	visual	left	tactile	catch	NA	NA	FALSE	FALSE	FALSE	FALSE	FALSE	0	FALSE	FALSE	TRUE
e16	2015	08	06	09	36	f	21	r	11.8273043579	1	124	0.493172139977	0.520306068943	left	tactile	left	tactile	catch	NA	NA	FALSE	FALSE	FALSE	FALSE	FALSE	0	FALSE	FALSE	TRUE
e16	2015	08	06	09	36	f	21	r	11.8273043579	1	125	0.834645975963	1.01497678119	left	tactile	left	tactile	target	voice	568.922631443	FALSE	FALSE	FALSE	FALSE	FALSE	0	FALSE	FALSE	TRUE
e16	2015	08	06	09	36	f	21	r	11.8273043579	1	126	0.591828363016	1.20403571924	left	visual	right	tactile	target	voice	370.347313466	FALSE	FALSE	FALSE	FALSE	TRUE	0	FALSE	FALSE	TRUE
e16	2015	08	06	09	36	f	21	r	11.8273043579	1	127	0.405571885058	0.941299895108	left	visual	left	tactile	target	voice	387.858168571	FALSE	FALSE	FALSE	FALSE	TRUE	0	FALSE	FALSE	TRUE
e16	2015	08	06	09	36	f	21	r	11.8273043579	1	128	1.51761549897	1.33246492885	right	tactile	left	visual	target	voice	484.841123805	FALSE	FALSE	FALSE	FALSE	TRUE	0	FALSE	FALSE	TRUE
e16	2015	08	06	09	36	f	21	r	11.8273043579	1	129	0.407293462078	1.24233952387	left	tactile	right	visual	target	voice	544.414459844	FALSE	FALSE	FALSE	FALSE	TRUE	0	FALSE	TRUE	TRUE
e16	2015	08	06	09	36	f	21	r	11.8273043579	1	130	0.772812052979	1.38251713039	left	tactile	right	tactile	target	voice	368.631115416	FALSE	FALSE	FALSE	FALSE	FALSE	0	FALSE	FALSE	TRUE
e16	2015	08	06	09	36	f	21	r	11.8273043579	1	131	0.693308716058	0.631290635722	right	visual	right	tactile	target	voice	760.517964023	FALSE	FALSE	FALSE	FALSE	FALSE	0	FALSE	FALSE	TRUE
e16	2015	08	06	09	36	f	21	r	11.8273043579	1	132	0.536830433994	1.48812604359	left	visual	left	visual	target	voice	885.979732149	FALSE	FALSE	FALSE	FALSE	FALSE	0	FALSE	FALSE	TRUE
e16	2015	08	06	09	36	f	21	r	11.8273043579	1	133	0.587928909925	0.656808031032	left	visual	left	tactile	target	voice	862.215633737	FALSE	FALSE	FALSE	FALSE	TRUE	0	FALSE	FALSE	TRUE
e16	2015	08	06	09	36	f	21	r	11.8273043579	1	134	0.772036746028	0.904195136869	left	visual	left	tactile	target	voice	388.519054861	FALSE	FALSE	FALSE	FALSE	FALSE	0	FALSE	FALSE	TRUE
e16	2015	08	06	09	36	f	21	r	11.8273043579	1	135	0.536214113003	1.25583205701	left	tactile	right	tactile	target	voice	NA	TRUE	FALSE	FALSE	FALSE	FALSE	0	FALSE	FALSE	FALSE
e16	2015	08	06	09	36	f	21	r	11.8273043579	1	136	1.08316016803	0.910753057971	right	tactile	right	tactile	target	voice	552.372158738	FALSE	FALSE	FALSE	FALSE	TRUE	0	FALSE	FALSE	TRUE
e16	2015	08	06	09	36	f	21	r	11.8273043579	1	137	6.06355206796	0.719402531166	right	visual	left	visual	target	voice	494.042227627	FALSE	FALSE	FALSE	FALSE	TRUE	0	FALSE	TRUE	TRUE
e16	2015	08	06	09	36	f	21	r	11.8273043579	1	138	0.628591383924	0.5897569841	right	visual	right	tactile	target	voice	484.88286254	FALSE	FALSE	FALSE	FALSE	TRUE	0	FALSE	FALSE	TRUE
e16	2015	08	06	09	36	f	21	r	11.8273043579	1	139	7.78226069396	0.93031952039	left	tactile	left	visual	target	voice	554.019995267	FALSE	FALSE	FALSE	FALSE	FALSE	0	FALSE	FALSE	TRUE
e16	2015	08	06	09	36	f	21	r	11.8273043579	1	140	0.602979710908	0.742107946535	left	tactile	left	tactile	target	voice	547.509535216	FALSE	FALSE	FALSE	FALSE	FALSE	0	FALSE	FALSE	TRUE
e16	2015	08	06	09	36	f	21	r	11.8273043579	1	141	0.500504333992	0.669611292256	left	tactile	right	visual	target	voice	318.528757431	FALSE	FALSE	FALSE	FALSE	FALSE	0	FALSE	FALSE	TRUE
e16	2015	08	06	09	36	f	21	r	11.8273043579	1	142	0.587692728965	1.04637559659	left	visual	left	visual	target	voice	481.432849192	FALSE	FALSE	FALSE	FALSE	TRUE	0	FALSE	FALSE	TRUE
e16	2015	08	06	09	36	f	21	r	11.8273043579	1	143	1.25263558596	0.981044647373	right	visual	right	tactile	target	voice	432.829040335	FALSE	FALSE	FALSE	FALSE	TRUE	0	FALSE	TRUE	TRUE
e16	2015	08	06	09	36	f	21	r	11.8273043579	1	144	0.946995676029	0.896824969664	right	visual	left	tactile	target	voice	411.293767975	FALSE	FALSE	FALSE	FALSE	FALSE	0	FALSE	FALSE	TRUE
e16	2015	08	06	09	36	f	21	r	11.8273043579	1	145	0.667557499954	0.807323832782	right	visual	left	visual	target	voice	462.319741957	FALSE	FALSE	FALSE	FALSE	FALSE	0	FALSE	FALSE	TRUE
e16	2015	08	06	09	36	f	21	r	11.8273043579	1	146	0.678105419036	0.608875576832	right	tactile	left	tactile	target	voice	429.405213799	FALSE	FALSE	FALSE	FALSE	TRUE	0	FALSE	TRUE	TRUE
e16	2015	08	06	09	36	f	21	r	11.8273043579	1	147	0.399558841018	0.80292105916	left	tactile	right	tactile	target	voice	290.415950469	FALSE	FALSE	FALSE	FALSE	TRUE	0	FALSE	FALSE	TRUE
e16	2015	08	06	09	36	f	21	r	11.8273043579	1	148	0.464952211012	1.03919883258	right	visual	right	tactile	target	voice	471.131126164	FALSE	FALSE	FALSE	FALSE	TRUE	0	FALSE	FALSE	TRUE
e16	2015	08	06	09	36	f	21	r	11.8273043579	1	149	0.404385423986	1.03871873088	left	tactile	right	visual	target	voice	457.360860775	FALSE	FALSE	FALSE	FALSE	FALSE	0	FALSE	FALSE	TRUE
e16	2015	08	06	09	36	f	21	r	11.8273043579	1	150	0.405554697034	1.36981336311	right	tactile	left	visual	catch	NA	NA	FALSE	FALSE	FALSE	FALSE	TRUE	0	FALSE	FALSE	TRUE
e16	2015	08	06	09	36	f	21	r	11.8273043579	1	151	0.649501751992	1.21015229508	right	tactile	left	visual	target	voice	525.160226622	FALSE	FALSE	FALSE	FALSE	TRUE	0	FALSE	TRUE	TRUE
e16	2015	08	06	09	36	f	21	r	11.8273043579	1	152	0.536678223987	1.10815767737	right	visual	left	tactile	target	voice	679.415870458	FALSE	FALSE	FALSE	FALSE	FALSE	0	FALSE	FALSE	TRUE
e16	2015	08	06	09	36	f	21	r	11.8273043579	1	153	0.434865799034	1.30841132762	left	visual	right	tactile	catch	NA	NA	FALSE	FALSE	FALSE	FALSE	TRUE	0	FALSE	TRUE	TRUE
e16	2015	08	06	09	36	f	21	r	11.8273043579	1	154	0.658459695987	0.894360795191	left	visual	left	visual	target	voice	696.454092511	FALSE	FALSE	FALSE	FALSE	TRUE	0	FALSE	FALSE	TRUE
e16	2015	08	06	09	36	f	21	r	11.8273043579	1	155	0.465233289986	1.32973963659	left	tactile	left	tactile	target	voice	635.230662185	FALSE	FALSE	FALSE	FALSE	TRUE	0	FALSE	FALSE	TRUE
e16	2015	08	06	09	36	f	21	r	11.8273043579	1	156	0.396283903043	1.47704506062	right	visual	right	tactile	target	voice	270.647613099	FALSE	FALSE	FALSE	FALSE	TRUE	0	FALSE	FALSE	TRUE
e16	2015	08	06	09	36	f	21	r	11.8273043579	1	157	0.402277061017	0.541210199684	right	visual	left	tactile	target	voice	411.658606958	FALSE	FALSE	FALSE	FALSE	TRUE	0	FALSE	TRUE	TRUE
e16	2015	08	06	09	36	f	21	r	11.8273043579	1	158	1.45641572902	0.865970673221	right	tactile	left	visual	target	voice	541.498679435	FALSE	FALSE	FALSE	FALSE	FALSE	0	FALSE	FALSE	TRUE
e16	2015	08	06	09	36	f	21	r	11.8273043579	1	159	1.06268916803	0.917357492483	right	visual	right	tactile	target	voice	432.317909203	FALSE	FALSE	FALSE	FALSE	FALSE	0	FALSE	FALSE	TRUE
e16	2015	08	06	09	36	f	21	r	11.8273043579	1	160	1.926423711	1.25936778909	right	visual	left	tactile	target	voice	292.985962587	FALSE	FALSE	FALSE	FALSE	FALSE	0	FALSE	FALSE	TRUE
e16	2015	08	06	09	36	f	21	r	37.1126466349	2	1	3.15708981594	0.93740531291	right	visual	right	tactile	target	voice	249.75692085	FALSE	FALSE	FALSE	FALSE	FALSE	0	FALSE	FALSE	TRUE
e16	2015	08	06	09	36	f	21	r	37.1126466349	2	2	170.486162974	1.01533843439	right	tactile	right	tactile	target	voice	NA	TRUE	FALSE	FALSE	FALSE	FALSE	0	FALSE	FALSE	FALSE
e16	2015	08	06	09	36	f	21	r	37.1126466349	2	3	7.26597067004	0.526912330614	right	visual	left	tactile	target	voice	302.207982051	FALSE	FALSE	FALSE	FALSE	FALSE	0	FALSE	FALSE	TRUE
e16	2015	08	06	09	36	f	21	r	37.1126466349	2	4	0.835264599998	0.689308291453	left	visual	left	tactile	target	voice	NA	TRUE	FALSE	FALSE	FALSE	FALSE	0	FALSE	FALSE	FALSE
e16	2015	08	06	09	36	f	21	r	37.1126466349	2	5	0.673939811997	1.3610295023	left	visual	left	visual	target	voice	555.293010315	FALSE	FALSE	FALSE	FALSE	FALSE	0	FALSE	FALSE	TRUE
e16	2015	08	06	09	36	f	21	r	37.1126466349	2	6	0.493933949969	1.28830019567	right	visual	right	visual	target	voice	446.380343987	FALSE	FALSE	FALSE	FALSE	FALSE	0	FALSE	FALSE	TRUE
e16	2015	08	06	09	36	f	21	r	37.1126466349	2	7	1.31338702911	0.599776747626	right	visual	right	tactile	target	voice	395.156296086	FALSE	FALSE	FALSE	FALSE	TRUE	0	FALSE	FALSE	TRUE
e16	2015	08	06	09	36	f	21	r	37.1126466349	2	8	0.403668295941	0.660331037921	left	visual	right	visual	target	voice	407.764181844	FALSE	FALSE	FALSE	FALSE	FALSE	0	FALSE	FALSE	TRUE
e16	2015	08	06	09	36	f	21	r	37.1126466349	2	9	0.442650704063	1.16342557987	left	visual	right	tactile	target	voice	316.389096784	FALSE	FALSE	FALSE	FALSE	FALSE	0	FALSE	FALSE	TRUE
e16	2015	08	06	09	36	f	21	r	37.1126466349	2	10	0.397521279985	0.675170625603	left	tactile	left	tactile	target	voice	486.194225145	FALSE	FALSE	FALSE	FALSE	TRUE	0	FALSE	TRUE	TRUE
e16	2015	08	06	09	36	f	21	r	37.1126466349	2	11	0.586009797058	1.10555197553	right	visual	left	visual	target	voice	425.637788139	FALSE	FALSE	FALSE	FALSE	TRUE	0	FALSE	FALSE	TRUE
e16	2015	08	06	09	36	f	21	r	37.1126466349	2	12	0.402663751971	0.534867465956	left	tactile	right	visual	target	voice	639.849920757	FALSE	FALSE	FALSE	FALSE	TRUE	0	FALSE	TRUE	TRUE
e16	2015	08	06	09	36	f	21	r	37.1126466349	2	13	0.405945879058	0.517927191607	right	tactile	left	visual	target	voice	545.570460148	FALSE	FALSE	FALSE	FALSE	FALSE	0	FALSE	FALSE	TRUE
e16	2015	08	06	09	36	f	21	r	37.1126466349	2	14	0.667568063014	1.30956202074	right	tactile	right	tactile	target	voice	522.057440015	FALSE	FALSE	FALSE	FALSE	TRUE	0	FALSE	TRUE	TRUE
e16	2015	08	06	09	36	f	21	r	37.1126466349	2	15	0.576748589054	1.47720826311	left	visual	left	visual	target	voice	812.191260629	FALSE	FALSE	FALSE	FALSE	FALSE	0	FALSE	FALSE	TRUE
e16	2015	08	06	09	36	f	21	r	37.1126466349	2	16	1.89231877599	0.725854904626	left	visual	left	visual	target	voice	498.022662126	FALSE	FALSE	FALSE	FALSE	TRUE	0	FALSE	TRUE	TRUE
e16	2015	08	06	09	36	f	21	r	37.1126466349	2	17	0.443526418996	0.9420025824	right	visual	left	tactile	target	voice	534.4788644	FALSE	FALSE	FALSE	FALSE	FALSE	0	FALSE	FALSE	TRUE
e16	2015	08	06	09	36	f	21	r	37.1126466349	2	18	0.456541561056	1.36939475222	right	visual	right	tactile	target	voice	264.83798353	FALSE	FALSE	FALSE	FALSE	TRUE	0	FALSE	TRUE	TRUE
e16	2015	08	06	09	36	f	21	r	37.1126466349	2	19	0.471433553961	1.30548178491	left	tactile	right	visual	target	voice	474.388453877	FALSE	FALSE	FALSE	FALSE	TRUE	0	FALSE	TRUE	TRUE
e16	2015	08	06	09	36	f	21	r	37.1126466349	2	20	0.468067989103	1.10147857557	right	tactile	left	tactile	target	voice	353.977118153	FALSE	FALSE	FALSE	FALSE	FALSE	0	FALSE	FALSE	TRUE
e16	2015	08	06	09	36	f	21	r	37.1126466349	2	21	0.495479941019	0.999010280415	right	visual	right	tactile	target	voice	488.092741347	FALSE	FALSE	FALSE	FALSE	TRUE	0	FALSE	TRUE	TRUE
e16	2015	08	06	09	36	f	21	r	37.1126466349	2	22	1.88961143896	1.4668437173	right	visual	left	tactile	target	voice	486.530429451	FALSE	FALSE	FALSE	FALSE	TRUE	0	FALSE	FALSE	TRUE
e16	2015	08	06	09	36	f	21	r	37.1126466349	2	23	0.583037256962	1.1121047246	right	tactile	right	visual	catch	NA	NA	FALSE	FALSE	FALSE	FALSE	FALSE	0	FALSE	FALSE	TRUE
e16	2015	08	06	09	36	f	21	r	37.1126466349	2	24	1.11077348096	0.896602393551	left	visual	right	tactile	target	voice	367.450729129	FALSE	FALSE	FALSE	FALSE	FALSE	0	FALSE	FALSE	TRUE
e16	2015	08	06	09	36	f	21	r	37.1126466349	2	25	0.403707626043	0.564510365673	left	tactile	right	tactile	target	voice	392.285624053	FALSE	FALSE	FALSE	FALSE	TRUE	0	FALSE	FALSE	TRUE
e16	2015	08	06	09	36	f	21	r	37.1126466349	2	26	0.398654573015	1.32648174702	right	tactile	right	visual	target	voice	548.592801788	FALSE	FALSE	FALSE	FALSE	TRUE	0	FALSE	TRUE	TRUE
e16	2015	08	06	09	36	f	21	r	37.1126466349	2	27	0.401069775922	0.820636906381	left	visual	right	visual	target	voice	549.671430257	FALSE	FALSE	FALSE	FALSE	TRUE	0	FALSE	TRUE	TRUE
e16	2015	08	06	09	36	f	21	r	37.1126466349	2	28	1.23585012497	0.738934256898	left	visual	left	tactile	target	voice	330.161975813	FALSE	FALSE	FALSE	FALSE	FALSE	0	FALSE	FALSE	TRUE
e16	2015	08	06	09	36	f	21	r	37.1126466349	2	29	1.56948698405	1.2379798821	right	visual	right	visual	target	voice	594.765797723	FALSE	FALSE	FALSE	FALSE	FALSE	0	FALSE	FALSE	TRUE
e16	2015	08	06	09	36	f	21	r	37.1126466349	2	30	0.600690651103	0.948435780039	left	tactile	left	tactile	target	voice	431.085398654	FALSE	FALSE	FALSE	FALSE	TRUE	0	FALSE	TRUE	TRUE
e16	2015	08	06	09	36	f	21	r	37.1126466349	2	31	0.410042945994	1.32822557396	left	tactile	left	visual	target	voice	790.347214788	FALSE	FALSE	FALSE	FALSE	TRUE	0	FALSE	FALSE	TRUE
e16	2015	08	06	09	36	f	21	r	37.1126466349	2	32	0.700226666988	1.49814998338	left	visual	right	tactile	target	voice	340.622439398	FALSE	FALSE	FALSE	FALSE	FALSE	0	FALSE	FALSE	TRUE
e16	2015	08	06	09	36	f	21	r	37.1126466349	2	33	0.399238975951	0.973101818615	right	tactile	left	tactile	target	voice	307.586208102	FALSE	FALSE	FALSE	FALSE	TRUE	0	FALSE	FALSE	TRUE
e16	2015	08	06	09	36	f	21	r	37.1126466349	2	34	1.40597456496	1.38730183127	left	tactile	left	visual	catch	NA	NA	FALSE	FALSE	FALSE	FALSE	FALSE	0	FALSE	FALSE	TRUE
e16	2015	08	06	09	36	f	21	r	37.1126466349	2	35	3.17011612002	1.01973127538	left	visual	right	visual	target	voice	381.744318292	FALSE	FALSE	FALSE	FALSE	FALSE	0	FALSE	FALSE	TRUE
e16	2015	08	06	09	36	f	21	r	37.1126466349	2	36	0.406459862948	1.07656592351	right	tactile	right	visual	target	voice	455.058663152	FALSE	FALSE	FALSE	FALSE	TRUE	0	FALSE	TRUE	TRUE
e16	2015	08	06	09	36	f	21	r	37.1126466349	2	37	0.409986065002	0.650087308539	left	visual	left	tactile	target	voice	604.135951144	FALSE	FALSE	FALSE	FALSE	FALSE	0	FALSE	FALSE	TRUE
e16	2015	08	06	09	36	f	21	r	37.1126466349	2	38	1.47266010102	1.22234829462	left	visual	right	tactile	target	voice	315.937606152	FALSE	FALSE	FALSE	FALSE	TRUE	0	FALSE	FALSE	TRUE
e16	2015	08	06	09	36	f	21	r	37.1126466349	2	39	1.46075956209	1.47585475393	right	visual	left	tactile	target	voice	558.860228746	FALSE	FALSE	FALSE	FALSE	TRUE	0	FALSE	FALSE	TRUE
e16	2015	08	06	09	36	f	21	r	37.1126466349	2	40	0.398111124057	1.4867567742	left	tactile	left	visual	target	voice	514.152397518	FALSE	FALSE	FALSE	FALSE	FALSE	0	FALSE	FALSE	TRUE
e16	2015	08	06	09	36	f	21	r	6.87593042292	2	41	5.23953059793	0.997652961357	right	tactile	right	tactile	catch	NA	NA	FALSE	FALSE	FALSE	FALSE	TRUE	0	FALSE	FALSE	TRUE
e16	2015	08	06	09	36	f	21	r	6.87593042292	2	42	0.528886729036	1.05161492064	right	tactile	right	visual	target	voice	466.717751115	FALSE	FALSE	FALSE	FALSE	TRUE	0	FALSE	TRUE	TRUE
e16	2015	08	06	09	36	f	21	r	6.87593042292	2	43	1.407965258	0.997040921819	right	tactile	right	visual	target	voice	517.126533901	FALSE	FALSE	FALSE	TRUE	TRUE	0	FALSE	TRUE	TRUE
e16	2015	08	06	09	36	f	21	r	6.87593042292	2	44	1.11473754002	1.21622691315	right	tactile	right	visual	target	voice	421.689463663	FALSE	FALSE	FALSE	FALSE	FALSE	0	FALSE	FALSE	TRUE
e16	2015	08	06	09	36	f	21	r	6.87593042292	2	45	0.404962594039	1.24569875327	left	visual	left	visual	target	voice	678.229996469	FALSE	FALSE	FALSE	FALSE	FALSE	0	FALSE	FALSE	TRUE
e16	2015	08	06	09	36	f	21	r	6.87593042292	2	46	1.32171853899	1.28052759395	right	visual	right	tactile	target	voice	408.373355749	FALSE	FALSE	FALSE	FALSE	FALSE	0	FALSE	FALSE	TRUE
e16	2015	08	06	09	36	f	21	r	6.87593042292	2	47	0.404557831935	0.649739975605	right	visual	left	tactile	target	voice	468.235494103	FALSE	FALSE	FALSE	FALSE	FALSE	0	FALSE	FALSE	TRUE
e16	2015	08	06	09	36	f	21	r	6.87593042292	2	48	0.485606617993	0.552697419281	right	visual	left	visual	target	voice	423.202197417	FALSE	FALSE	FALSE	FALSE	TRUE	0	FALSE	TRUE	TRUE
e16	2015	08	06	09	36	f	21	r	6.87593042292	2	49	0.510351486038	0.860197174792	right	tactile	left	tactile	target	voice	522.506908979	FALSE	FALSE	FALSE	FALSE	TRUE	0	FALSE	FALSE	TRUE
e16	2015	08	06	09	36	f	21	r	6.87593042292	2	50	0.550998463063	0.879118323204	left	tactile	right	visual	target	voice	281.170042465	FALSE	FALSE	FALSE	FALSE	FALSE	0	FALSE	FALSE	TRUE
e16	2015	08	06	09	36	f	21	r	6.87593042292	2	51	0.698792665964	1.46097666383	left	visual	right	tactile	target	voice	NA	TRUE	FALSE	FALSE	FALSE	FALSE	0	FALSE	FALSE	FALSE
e16	2015	08	06	09	36	f	21	r	6.87593042292	2	52	0.729521851055	0.786515213525	right	visual	right	tactile	target	voice	413.128095097	FALSE	FALSE	FALSE	FALSE	TRUE	0	FALSE	TRUE	TRUE
e16	2015	08	06	09	36	f	21	r	6.87593042292	2	53	0.455546497949	0.572174430699	left	tactile	right	tactile	target	voice	291.608097032	FALSE	FALSE	FALSE	FALSE	TRUE	0	FALSE	TRUE	TRUE
e16	2015	08	06	09	36	f	21	r	6.87593042292	2	54	0.52739451197	1.41910911411	left	tactile	right	visual	target	voice	438.748144661	FALSE	FALSE	FALSE	FALSE	FALSE	0	FALSE	FALSE	TRUE
e16	2015	08	06	09	36	f	21	r	6.87593042292	2	55	0.401601576945	0.914905872291	left	tactile	right	visual	target	voice	396.137228468	FALSE	FALSE	FALSE	FALSE	TRUE	0	FALSE	TRUE	TRUE
e16	2015	08	06	09	36	f	21	r	6.87593042292	2	56	0.410054343985	0.568477846402	right	tactile	left	tactile	catch	NA	NA	FALSE	FALSE	FALSE	FALSE	TRUE	0	FALSE	FALSE	TRUE
e16	2015	08	06	09	36	f	21	r	6.87593042292	2	57	0.789836211945	1.04207538361	left	tactile	right	visual	catch	NA	NA	FALSE	FALSE	FALSE	FALSE	TRUE	0	FALSE	TRUE	TRUE
e16	2015	08	06	09	36	f	21	r	6.87593042292	2	58	0.90872960398	1.10921351387	right	tactile	right	tactile	target	voice	501.902155811	FALSE	FALSE	FALSE	FALSE	FALSE	0	FALSE	FALSE	TRUE
e16	2015	08	06	09	36	f	21	r	6.87593042292	2	59	0.40878173802	1.19965036521	left	visual	left	tactile	target	voice	441.730655497	FALSE	FALSE	FALSE	FALSE	TRUE	0	FALSE	FALSE	TRUE
e16	2015	08	06	09	36	f	21	r	6.87593042292	2	60	1.12254358595	1.33714875701	right	tactile	left	tactile	target	voice	357.142517576	FALSE	FALSE	FALSE	FALSE	TRUE	0	FALSE	TRUE	TRUE
e16	2015	08	06	09	36	f	21	r	6.87593042292	2	61	0.442291075946	0.512383528704	right	tactile	left	visual	target	voice	572.118637967	FALSE	FALSE	FALSE	FALSE	TRUE	0	FALSE	TRUE	TRUE
e16	2015	08	06	09	36	f	21	r	6.87593042292	2	62	0.400689779082	0.698339929342	left	visual	right	visual	target	NA	NA	FALSE	FALSE	FALSE	FALSE	TRUE	0	FALSE	FALSE	TRUE
e16	2015	08	06	09	36	f	21	r	6.87593042292	2	63	0.602716750931	0.785523518387	left	visual	right	tactile	target	voice	452.758943313	FALSE	FALSE	FALSE	TRUE	TRUE	0	FALSE	TRUE	TRUE
e16	2015	08	06	09	36	f	21	r	6.87593042292	2	64	0.543137317989	1.31777888412	left	visual	left	visual	target	voice	486.639507581	FALSE	FALSE	FALSE	FALSE	TRUE	0	FALSE	FALSE	TRUE
e16	2015	08	06	09	36	f	21	r	6.87593042292	2	65	0.390840513981	0.89141521664	left	tactile	right	tactile	target	voice	684.235593188	FALSE	FALSE	FALSE	FALSE	TRUE	0	FALSE	FALSE	TRUE
e16	2015	08	06	09	36	f	21	r	6.87593042292	2	66	0.398831013008	0.561371043763	right	tactile	left	visual	target	voice	592.178451014	FALSE	FALSE	FALSE	FALSE	TRUE	0	FALSE	TRUE	TRUE
e16	2015	08	06	09	36	f	21	r	6.87593042292	2	67	1.20049315901	1.26768319073	right	tactile	right	visual	target	voice	275.932894903	FALSE	FALSE	FALSE	FALSE	TRUE	0	FALSE	TRUE	TRUE
e16	2015	08	06	09	36	f	21	r	6.87593042292	2	68	1.24578167393	1.10225317463	right	visual	right	visual	target	voice	329.6096751	FALSE	FALSE	FALSE	FALSE	TRUE	0	FALSE	TRUE	TRUE
e16	2015	08	06	09	36	f	21	r	6.87593042292	2	69	1.71016343799	0.788499045448	right	visual	left	tactile	target	voice	362.64214234	FALSE	FALSE	FALSE	FALSE	TRUE	0	FALSE	TRUE	TRUE
e16	2015	08	06	09	36	f	21	r	6.87593042292	2	70	1.65323919605	0.706485467686	right	visual	right	visual	target	voice	617.27756192	FALSE	FALSE	FALSE	FALSE	TRUE	0	FALSE	FALSE	TRUE
e16	2015	08	06	09	36	f	21	r	6.87593042292	2	71	0.539083593059	1.14798306523	left	tactile	left	visual	target	voice	455.134803429	FALSE	FALSE	FALSE	FALSE	TRUE	0	FALSE	FALSE	TRUE
e16	2015	08	06	09	36	f	21	r	6.87593042292	2	72	0.591385119944	0.648731186305	left	tactile	left	visual	target	voice	716.119824443	FALSE	FALSE	FALSE	FALSE	TRUE	0	FALSE	FALSE	TRUE
e16	2015	08	06	09	36	f	21	r	6.87593042292	2	73	0.398308061995	0.76979653391	right	visual	left	visual	target	voice	335.59536282	FALSE	FALSE	FALSE	FALSE	FALSE	0	FALSE	FALSE	TRUE
e16	2015	08	06	09	36	f	21	r	6.87593042292	2	74	0.672490901081	1.48225592083	left	visual	left	visual	target	voice	653.693053871	FALSE	FALSE	FALSE	FALSE	TRUE	0	FALSE	FALSE	TRUE
e16	2015	08	06	09	36	f	21	r	6.87593042292	2	75	0.501095623942	1.49354454577	right	tactile	left	tactile	target	voice	541.477742023	FALSE	FALSE	FALSE	FALSE	TRUE	0	FALSE	FALSE	TRUE
e16	2015	08	06	09	36	f	21	r	6.87593042292	2	76	1.88127281703	0.531212370253	right	tactile	right	visual	target	voice	468.075079494	FALSE	FALSE	FALSE	FALSE	TRUE	0	FALSE	FALSE	TRUE
e16	2015	08	06	09	36	f	21	r	6.87593042292	2	77	0.547403245	1.16967651915	right	tactile	right	tactile	target	voice	473.54139958	FALSE	FALSE	FALSE	FALSE	TRUE	0	FALSE	TRUE	TRUE
e16	2015	08	06	09	36	f	21	r	6.87593042292	2	78	0.541330376989	0.783191562822	right	tactile	left	visual	catch	NA	NA	FALSE	FALSE	FALSE	FALSE	TRUE	0	FALSE	FALSE	TRUE
e16	2015	08	06	09	36	f	21	r	6.87593042292	2	79	1.91275784001	0.614569327914	left	tactile	right	visual	target	voice	425.949513796	FALSE	FALSE	FALSE	FALSE	TRUE	0	FALSE	FALSE	TRUE
e16	2015	08	06	09	36	f	21	r	6.87593042292	2	80	0.664974936983	1.3048724372	right	visual	right	visual	catch	NA	NA	FALSE	FALSE	FALSE	FALSE	TRUE	0	FALSE	TRUE	TRUE
e16	2015	08	06	09	36	f	21	r	12.5010836651	2	81	2.49054320902	0.906099554179	right	tactile	left	tactile	target	voice	379.122237558	FALSE	FALSE	FALSE	FALSE	FALSE	0	FALSE	FALSE	TRUE
e16	2015	08	06	09	36	f	21	r	12.5010836651	2	82	0.633034321945	1.13502564559	left	tactile	left	visual	target	NA	NA	FALSE	FALSE	FALSE	FALSE	FALSE	0	FALSE	FALSE	TRUE
e16	2015	08	06	09	36	f	21	r	12.5010836651	2	83	0.511151429033	0.974616857328	left	tactile	left	visual	target	voice	389.102585381	FALSE	FALSE	FALSE	FALSE	TRUE	0	FALSE	FALSE	TRUE
e16	2015	08	06	09	36	f	21	r	12.5010836651	2	84	0.422092478955	1.43770301674	right	visual	left	tactile	target	voice	307.73704988	FALSE	FALSE	FALSE	FALSE	FALSE	0	FALSE	FALSE	TRUE
e16	2015	08	06	09	36	f	21	r	12.5010836651	2	85	0.403019858059	0.592968953591	left	tactile	left	tactile	target	voice	314.844843233	FALSE	FALSE	FALSE	FALSE	FALSE	0	FALSE	FALSE	TRUE
e16	2015	08	06	09	36	f	21	r	12.5010836651	2	86	0.402021410991	0.876208149111	left	tactile	left	tactile	target	voice	329.486759612	FALSE	FALSE	FALSE	FALSE	TRUE	0	FALSE	FALSE	TRUE
e16	2015	08	06	09	36	f	21	r	12.5010836651	2	87	1.13807864801	0.996936517173	left	tactile	left	visual	target	voice	294.936160557	FALSE	FALSE	FALSE	FALSE	FALSE	0	FALSE	FALSE	TRUE
e16	2015	08	06	09	36	f	21	r	12.5010836651	2	88	0.427315291949	1.25647307531	right	visual	right	visual	target	voice	277.400738327	FALSE	FALSE	FALSE	FALSE	TRUE	0	FALSE	TRUE	TRUE
e16	2015	08	06	09	36	f	21	r	12.5010836651	2	89	0.423078348977	1.27365955817	right	visual	left	tactile	target	voice	231.127076666	FALSE	FALSE	FALSE	FALSE	FALSE	0	FALSE	FALSE	TRUE
e16	2015	08	06	09	36	f	21	r	12.5010836651	2	90	1.30813665898	1.01751080486	left	visual	left	visual	target	voice	448.861013982	FALSE	FALSE	FALSE	FALSE	FALSE	0	FALSE	FALSE	TRUE
e16	2015	08	06	09	36	f	21	r	12.5010836651	2	91	0.433456097031	1.15168099494	right	tactile	left	visual	target	voice	315.493291826	FALSE	FALSE	FALSE	FALSE	TRUE	0	FALSE	FALSE	TRUE
e16	2015	08	06	09	36	f	21	r	12.5010836651	2	92	0.409332941985	1.33034594827	left	visual	right	visual	catch	NA	NA	FALSE	FALSE	FALSE	FALSE	TRUE	0	FALSE	TRUE	TRUE
e16	2015	08	06	09	36	f	21	r	12.5010836651	2	93	0.831608969951	0.716920436851	left	tactile	left	tactile	catch	NA	NA	FALSE	FALSE	FALSE	FALSE	FALSE	0	FALSE	FALSE	TRUE
e16	2015	08	06	09	36	f	21	r	12.5010836651	2	94	0.805372141069	0.622650101818	right	tactile	right	visual	target	voice	436.119336868	FALSE	FALSE	FALSE	FALSE	TRUE	0	FALSE	TRUE	TRUE
e16	2015	08	06	09	36	f	21	r	12.5010836651	2	95	0.535854299087	1.01796572351	left	tactile	right	visual	target	voice	565.569520229	FALSE	FALSE	FALSE	FALSE	TRUE	0	FALSE	FALSE	TRUE
e16	2015	08	06	09	36	f	21	r	12.5010836651	2	96	0.599646067014	1.01285557121	right	tactile	left	visual	target	voice	387.207496446	FALSE	FALSE	FALSE	FALSE	TRUE	0	FALSE	TRUE	TRUE
e16	2015	08	06	09	36	f	21	r	12.5010836651	2	97	0.416282506078	0.859736159157	right	visual	right	visual	target	voice	328.126722481	FALSE	FALSE	FALSE	FALSE	FALSE	0	FALSE	FALSE	TRUE
e16	2015	08	06	09	36	f	21	r	12.5010836651	2	98	0.403054561	0.580207719145	left	visual	left	tactile	target	voice	336.423496599	FALSE	FALSE	FALSE	FALSE	TRUE	0	FALSE	FALSE	TRUE
e16	2015	08	06	09	36	f	21	r	12.5010836651	2	99	0.471794756013	0.915567188426	left	tactile	left	visual	target	voice	634.442306357	FALSE	FALSE	FALSE	FALSE	FALSE	0	FALSE	FALSE	TRUE
e16	2015	08	06	09	36	f	21	r	12.5010836651	2	100	0.424641962978	0.686168904544	right	visual	right	visual	target	voice	885.217997129	FALSE	FALSE	FALSE	FALSE	FALSE	0	FALSE	FALSE	TRUE
e16	2015	08	06	09	36	f	21	r	12.5010836651	2	101	0.646300174994	1.34059734908	right	visual	left	tactile	catch	NA	NA	FALSE	FALSE	FALSE	FALSE	FALSE	0	FALSE	FALSE	TRUE
e16	2015	08	06	09	36	f	21	r	12.5010836651	2	102	1.37192649604	1.10522264622	right	tactile	right	tactile	target	voice	443.012770498	FALSE	FALSE	FALSE	FALSE	FALSE	0	FALSE	FALSE	TRUE
e16	2015	08	06	09	36	f	21	r	12.5010836651	2	103	0.464252087055	1.25107487672	right	visual	left	visual	target	voice	369.889085996	FALSE	FALSE	FALSE	FALSE	TRUE	0	FALSE	TRUE	TRUE
e16	2015	08	06	09	36	f	21	r	12.5010836651	2	104	0.400519720977	0.594280536944	right	visual	left	tactile	target	voice	515.501337824	FALSE	FALSE	FALSE	FALSE	FALSE	0	FALSE	FALSE	TRUE
e16	2015	08	06	09	36	f	21	r	12.5010836651	2	105	0.56814899703	0.620986045663	left	visual	left	visual	catch	NA	NA	FALSE	FALSE	FALSE	FALSE	FALSE	0	FALSE	FALSE	TRUE
e16	2015	08	06	09	36	f	21	r	12.5010836651	2	106	0.775470089051	1.43626577934	left	visual	left	tactile	target	voice	414.080540417	FALSE	FALSE	FALSE	FALSE	TRUE	0	FALSE	FALSE	TRUE
e16	2015	08	06	09	36	f	21	r	12.5010836651	2	107	1.25882129802	0.667832110643	right	tactile	left	tactile	target	voice	822.673591087	FALSE	FALSE	FALSE	FALSE	TRUE	0	FALSE	TRUE	TRUE
e16	2015	08	06	09	36	f	21	r	12.5010836651	2	108	0.492070775945	0.636215995253	left	visual	right	tactile	target	voice	379.580355366	FALSE	FALSE	FALSE	FALSE	FALSE	0	FALSE	FALSE	TRUE
e16	2015	08	06	09	36	f	21	r	12.5010836651	2	109	0.396314959042	0.801246888932	left	tactile	right	tactile	catch	NA	NA	FALSE	FALSE	FALSE	FALSE	TRUE	0	FALSE	TRUE	TRUE
e16	2015	08	06	09	36	f	21	r	12.5010836651	2	110	0.942881759023	1.1429871285	left	visual	right	visual	target	voice	474.614568288	FALSE	FALSE	FALSE	FALSE	FALSE	0	FALSE	FALSE	TRUE
e16	2015	08	06	09	36	f	21	r	12.5010836651	2	111	0.658814982977	1.00631271031	left	visual	right	visual	target	voice	477.243196336	FALSE	FALSE	FALSE	FALSE	FALSE	0	FALSE	FALSE	TRUE
e16	2015	08	06	09	36	f	21	r	12.5010836651	2	112	0.53682123404	0.774688395221	right	visual	left	visual	target	voice	361.029603519	FALSE	FALSE	FALSE	FALSE	FALSE	0	FALSE	FALSE	TRUE
e16	2015	08	06	09	36	f	21	r	12.5010836651	2	113	1.22394344199	0.978897966669	left	visual	right	tactile	catch	NA	NA	FALSE	FALSE	FALSE	FALSE	TRUE	0	FALSE	FALSE	TRUE
e16	2015	08	06	09	36	f	21	r	12.5010836651	2	114	0.671721123974	1.11212757312	right	tactile	right	tactile	target	voice	406.110895565	FALSE	FALSE	FALSE	FALSE	TRUE	0	FALSE	TRUE	TRUE
e16	2015	08	06	09	36	f	21	r	12.5010836651	2	115	0.412556924974	0.769092075682	right	visual	right	tactile	catch	NA	NA	FALSE	FALSE	FALSE	FALSE	TRUE	0	FALSE	FALSE	TRUE
e16	2015	08	06	09	36	f	21	r	12.5010836651	2	116	0.625615098048	0.974222414735	left	visual	left	tactile	target	voice	452.099062037	FALSE	FALSE	FALSE	FALSE	TRUE	0	FALSE	TRUE	TRUE
e16	2015	08	06	09	36	f	21	r	12.5010836651	2	117	0.512319870992	0.974623924998	right	visual	right	visual	target	voice	600.606428576	FALSE	FALSE	FALSE	FALSE	TRUE	0	FALSE	TRUE	TRUE
e16	2015	08	06	09	36	f	21	r	12.5010836651	2	118	0.395292446017	0.698861120729	left	tactile	right	tactile	target	voice	302.265367005	FALSE	FALSE	FALSE	FALSE	TRUE	0	FALSE	TRUE	TRUE
e16	2015	08	06	09	36	f	21	r	12.5010836651	2	119	1.29017528798	0.68488747007	right	tactile	right	tactile	target	voice	428.27114067	FALSE	FALSE	FALSE	FALSE	TRUE	0	FALSE	FALSE	TRUE
e16	2015	08	06	09	36	f	21	r	12.5010836651	2	120	0.401466625044	0.962080286558	left	tactile	right	tactile	target	voice	279.604624142	FALSE	FALSE	FALSE	FALSE	FALSE	0	FALSE	FALSE	TRUE
e16	2015	08	06	09	36	f	21	r	3.63743056997	2	121	5.58929979999	0.571253919826	right	visual	left	visual	target	voice	545.257566846	FALSE	FALSE	FALSE	FALSE	TRUE	0	FALSE	TRUE	TRUE
e16	2015	08	06	09	36	f	21	r	3.63743056997	2	122	0.394879077096	0.671890904594	left	visual	left	tactile	target	voice	324.47966421	FALSE	FALSE	FALSE	FALSE	FALSE	0	FALSE	FALSE	TRUE
e16	2015	08	06	09	36	f	21	r	3.63743056997	2	123	0.40849009098	0.821409751176	left	visual	left	tactile	target	voice	336.143867578	FALSE	FALSE	FALSE	FALSE	FALSE	0	FALSE	FALSE	TRUE
e16	2015	08	06	09	36	f	21	r	3.63743056997	2	124	0.401467427961	0.754437668687	left	visual	left	visual	target	voice	548.018983915	FALSE	FALSE	FALSE	FALSE	TRUE	0	FALSE	TRUE	TRUE
e16	2015	08	06	09	36	f	21	r	3.63743056997	2	125	0.40608037496	1.14990279751	right	tactile	left	visual	target	voice	318.632449256	FALSE	FALSE	FALSE	FALSE	TRUE	0	FALSE	TRUE	TRUE
e16	2015	08	06	09	36	f	21	r	3.63743056997	2	126	0.403682083939	0.913054306631	right	visual	right	tactile	target	voice	270.539983059	FALSE	FALSE	FALSE	FALSE	FALSE	0	FALSE	FALSE	TRUE
e16	2015	08	06	09	36	f	21	r	3.63743056997	2	127	0.397941636038	1.2242906279	left	visual	right	tactile	target	voice	NA	TRUE	FALSE	FALSE	FALSE	TRUE	0	FALSE	TRUE	FALSE
e16	2015	08	06	09	36	f	21	r	3.63743056997	2	128	1.12848440802	1.46877444419	right	visual	right	visual	target	voice	345.051644486	FALSE	FALSE	FALSE	FALSE	TRUE	0	FALSE	TRUE	TRUE
e16	2015	08	06	09	36	f	21	r	3.63743056997	2	129	0.412173136021	0.758890163117	right	tactile	right	tactile	target	voice	559.369135648	FALSE	FALSE	FALSE	FALSE	FALSE	0	FALSE	FALSE	TRUE
e16	2015	08	06	09	36	f	21	r	3.63743056997	2	130	0.76489468303	0.783589696598	left	tactile	left	visual	target	voice	492.578427074	FALSE	FALSE	FALSE	FALSE	TRUE	0	FALSE	FALSE	TRUE
e16	2015	08	06	09	36	f	21	r	3.63743056997	2	131	2.356783172	1.03234306693	left	visual	left	visual	target	voice	521.228852798	FALSE	FALSE	FALSE	FALSE	FALSE	0	FALSE	FALSE	TRUE
e16	2015	08	06	09	36	f	21	r	3.63743056997	2	132	0.55684523494	1.4287862747	left	tactile	right	visual	target	voice	331.892136019	FALSE	FALSE	FALSE	FALSE	FALSE	0	FALSE	FALSE	TRUE
e16	2015	08	06	09	36	f	21	r	3.63743056997	2	133	0.640854721074	1.36622739289	right	tactile	left	tactile	target	voice	274.10741488	FALSE	FALSE	FALSE	FALSE	FALSE	0	FALSE	FALSE	TRUE
e16	2015	08	06	09	36	f	21	r	3.63743056997	2	134	0.582428153022	0.563467743012	right	visual	left	visual	catch	NA	NA	FALSE	FALSE	FALSE	FALSE	FALSE	0	FALSE	FALSE	TRUE
e16	2015	08	06	09	36	f	21	r	3.63743056997	2	135	0.693603837979	0.763698655362	left	visual	right	visual	target	voice	395.367766265	FALSE	FALSE	FALSE	FALSE	TRUE	0	FALSE	TRUE	TRUE
e16	2015	08	06	09	36	f	21	r	3.63743056997	2	136	0.881166693987	0.796792729378	left	tactile	left	tactile	target	voice	492.809334304	FALSE	FALSE	FALSE	FALSE	TRUE	0	FALSE	FALSE	TRUE
e16	2015	08	06	09	36	f	21	r	3.63743056997	2	137	0.493960288004	0.77436177199	left	tactile	left	tactile	target	voice	484.136809711	FALSE	FALSE	FALSE	FALSE	TRUE	0	FALSE	TRUE	TRUE
e16	2015	08	06	09	36	f	21	r	3.63743056997	2	138	1.82344410405	0.644859292676	left	tactile	right	tactile	target	voice	492.376468028	FALSE	FALSE	FALSE	FALSE	TRUE	0	FALSE	FALSE	TRUE
e16	2015	08	06	09	36	f	21	r	3.63743056997	2	139	0.682138312957	0.502020082721	right	visual	left	visual	target	voice	491.576683125	FALSE	FALSE	FALSE	FALSE	TRUE	0	FALSE	TRUE	TRUE
e16	2015	08	06	09	36	f	21	r	3.63743056997	2	140	0.51163687103	0.703486729279	right	visual	left	visual	target	voice	450.079906383	FALSE	FALSE	FALSE	FALSE	TRUE	0	FALSE	TRUE	TRUE
e16	2015	08	06	09	36	f	21	r	3.63743056997	2	141	0.404268718092	1.16003371693	left	visual	right	visual	target	voice	344.172909739	FALSE	FALSE	FALSE	FALSE	FALSE	0	FALSE	FALSE	TRUE
e16	2015	08	06	09	36	f	21	r	3.63743056997	2	142	0.492363682948	1.02701563187	left	tactile	right	tactile	target	voice	297.806791845	FALSE	FALSE	FALSE	FALSE	TRUE	0	FALSE	FALSE	TRUE
e16	2015	08	06	09	36	f	21	r	3.63743056997	2	143	0.409596515005	1.02418889431	right	visual	right	tactile	target	voice	142.058167374	FALSE	FALSE	FALSE	FALSE	FALSE	0	FALSE	FALSE	TRUE
e16	2015	08	06	09	36	f	21	r	3.63743056997	2	144	0.405161599978	1.31170561843	right	tactile	left	tactile	target	voice	NA	TRUE	FALSE	FALSE	FALSE	FALSE	0	FALSE	FALSE	FALSE
e16	2015	08	06	09	36	f	21	r	3.63743056997	2	145	0.882685701945	1.39904063475	left	tactile	left	tactile	target	voice	541.57577001	FALSE	FALSE	FALSE	FALSE	TRUE	0	FALSE	FALSE	TRUE
e16	2015	08	06	09	36	f	21	r	3.63743056997	2	146	1.42376169399	1.34733019889	left	tactile	left	tactile	target	voice	432.110278867	FALSE	FALSE	FALSE	FALSE	FALSE	0	FALSE	FALSE	TRUE
e16	2015	08	06	09	36	f	21	r	3.63743056997	2	147	1.74699456408	0.997161291539	left	visual	right	tactile	target	voice	365.390670137	FALSE	FALSE	FALSE	FALSE	FALSE	0	FALSE	FALSE	TRUE
e16	2015	08	06	09	36	f	21	r	3.63743056997	2	148	0.503546301974	0.537985780672	right	tactile	right	tactile	target	voice	519.02470307	FALSE	FALSE	FALSE	FALSE	FALSE	0	FALSE	FALSE	TRUE
e16	2015	08	06	09	36	f	21	r	3.63743056997	2	149	0.42714147293	0.725637692057	left	tactile	right	tactile	target	voice	403.465017676	FALSE	FALSE	FALSE	FALSE	FALSE	0	FALSE	FALSE	TRUE
e16	2015	08	06	09	36	f	21	r	3.63743056997	2	150	0.495162404957	1.46566345849	left	tactile	right	tactile	target	voice	277.819222189	FALSE	FALSE	FALSE	FALSE	FALSE	0	FALSE	FALSE	TRUE
e16	2015	08	06	09	36	f	21	r	3.63743056997	2	151	0.403272183961	1.01118982438	right	tactile	left	visual	target	voice	492.35884333	FALSE	FALSE	FALSE	FALSE	TRUE	0	FALSE	TRUE	TRUE
e16	2015	08	06	09	36	f	21	r	3.63743056997	2	152	0.405362318037	0.670818892168	right	visual	left	visual	target	voice	537.949731573	FALSE	FALSE	FALSE	FALSE	TRUE	0	FALSE	FALSE	TRUE
e16	2015	08	06	09	36	f	21	r	3.63743056997	2	153	0.490951303043	1.25962677864	right	visual	right	tactile	target	voice	550.98377401	FALSE	FALSE	FALSE	FALSE	TRUE	0	FALSE	TRUE	TRUE
e16	2015	08	06	09	36	f	21	r	3.63743056997	2	154	0.480694844038	1.13113847436	left	tactile	right	visual	target	voice	546.750348411	FALSE	FALSE	FALSE	FALSE	TRUE	0	FALSE	TRUE	TRUE
e16	2015	08	06	09	36	f	21	r	3.63743056997	2	155	0.465522089042	0.704860919952	right	tactile	right	visual	target	voice	470.203692792	FALSE	FALSE	FALSE	FALSE	FALSE	0	FALSE	FALSE	TRUE
e16	2015	08	06	09	36	f	21	r	3.63743056997	2	156	0.411422836012	0.945468488842	left	visual	right	visual	target	voice	387.912618928	FALSE	FALSE	FALSE	FALSE	FALSE	0	FALSE	FALSE	TRUE
e16	2015	08	06	09	36	f	21	r	3.63743056997	2	157	0.461032895022	0.749468298845	left	tactile	left	tactile	target	voice	451.086611836	FALSE	FALSE	FALSE	FALSE	TRUE	0	FALSE	FALSE	TRUE
e16	2015	08	06	09	36	f	21	r	3.63743056997	2	158	0.399438465014	1.32390544038	right	tactile	left	visual	target	voice	NA	TRUE	FALSE	FALSE	FALSE	FALSE	0	FALSE	FALSE	FALSE
e16	2015	08	06	09	36	f	21	r	3.63743056997	2	159	0.839781193994	0.755442339556	right	tactile	left	visual	target	voice	512.881952105	FALSE	FALSE	FALSE	FALSE	TRUE	0	FALSE	TRUE	TRUE
e16	2015	08	06	09	36	f	21	r	3.63743056997	2	160	0.636255126912	1.42777153665	left	visual	left	tactile	catch	NA	NA	FALSE	FALSE	FALSE	FALSE	TRUE	0	FALSE	TRUE	TRUE
e16	2015	08	06	09	36	f	21	r	91.1342097559	3	1	1.25576264807	0.899506838799	left	tactile	right	visual	target	voice	407.969253021	FALSE	FALSE	FALSE	FALSE	FALSE	0	FALSE	FALSE	TRUE
e16	2015	08	06	09	36	f	21	r	91.1342097559	3	2	0.506674165023	0.891958643302	left	tactile	right	visual	catch	NA	NA	FALSE	FALSE	FALSE	FALSE	FALSE	0	FALSE	FALSE	TRUE
e16	2015	08	06	09	36	f	21	r	91.1342097559	3	3	0.641779484926	1.29083958928	right	visual	right	tactile	target	voice	287.38197044	FALSE	FALSE	FALSE	FALSE	FALSE	0	FALSE	FALSE	TRUE
e16	2015	08	06	09	36	f	21	r	91.1342097559	3	4	0.51284477103	0.564343108871	right	tactile	left	tactile	target	voice	313.132456853	FALSE	FALSE	FALSE	FALSE	FALSE	0	FALSE	FALSE	TRUE
e16	2015	08	06	09	36	f	21	r	91.1342097559	3	5	0.564109191997	1.3331717384	left	visual	left	tactile	catch	NA	NA	FALSE	FALSE	FALSE	FALSE	TRUE	0	FALSE	FALSE	TRUE
e16	2015	08	06	09	36	f	21	r	91.1342097559	3	6	0.776988534024	0.535307188694	left	visual	left	visual	target	voice	530.879752943	FALSE	FALSE	FALSE	FALSE	FALSE	0	FALSE	FALSE	TRUE
e16	2015	08	06	09	36	f	21	r	91.1342097559	3	7	0.400910439086	0.745121696834	left	visual	right	visual	target	voice	352.415363886	FALSE	FALSE	FALSE	FALSE	TRUE	0	FALSE	FALSE	TRUE
e16	2015	08	06	09	36	f	21	r	91.1342097559	3	8	0.430613250937	0.610239049375	right	visual	left	visual	target	voice	381.196251255	FALSE	FALSE	FALSE	FALSE	TRUE	0	FALSE	TRUE	TRUE
e16	2015	08	06	09	36	f	21	r	91.1342097559	3	9	0.407880228013	0.702014039151	left	tactile	right	tactile	catch	NA	NA	FALSE	FALSE	FALSE	FALSE	FALSE	0	FALSE	FALSE	TRUE
e16	2015	08	06	09	36	f	21	r	91.1342097559	3	10	0.676480486989	0.558088468788	left	tactile	left	visual	target	NA	NA	FALSE	FALSE	FALSE	FALSE	FALSE	0	FALSE	FALSE	TRUE
e16	2015	08	06	09	36	f	21	r	91.1342097559	3	11	1.169320366	1.26364467537	left	visual	left	visual	target	voice	324.377803365	FALSE	FALSE	FALSE	FALSE	FALSE	0	FALSE	FALSE	TRUE
e16	2015	08	06	09	36	f	21	r	91.1342097559	3	12	0.401705892989	0.809792297452	right	visual	right	visual	target	voice	432.283338276	FALSE	FALSE	FALSE	FALSE	TRUE	0	FALSE	TRUE	TRUE
e16	2015	08	06	09	36	f	21	r	91.1342097559	3	13	0.405405733036	0.557175099861	left	visual	left	tactile	target	NA	NA	FALSE	FALSE	FALSE	FALSE	FALSE	0	FALSE	FALSE	TRUE
e16	2015	08	06	09	36	f	21	r	91.1342097559	3	14	1.30065864895	0.575881430897	right	tactile	right	tactile	target	voice	590.611205786	FALSE	FALSE	FALSE	FALSE	TRUE	0	FALSE	TRUE	TRUE
e16	2015	08	06	09	36	f	21	r	91.1342097559	3	15	0.549346399959	0.864103890905	right	visual	left	visual	target	voice	393.974432838	FALSE	FALSE	FALSE	FALSE	TRUE	0	FALSE	TRUE	TRUE
e16	2015	08	06	09	36	f	21	r	91.1342097559	3	16	0.427791915019	0.563571500945	left	visual	left	visual	target	voice	453.481654753	FALSE	FALSE	FALSE	FALSE	TRUE	0	FALSE	FALSE	TRUE
e16	2015	08	06	09	36	f	21	r	91.1342097559	3	17	0.408384050941	1.46522761703	left	tactile	right	visual	target	voice	416.53787368	FALSE	FALSE	FALSE	FALSE	TRUE	0	FALSE	FALSE	TRUE
e16	2015	08	06	09	36	f	21	r	91.1342097559	3	18	1.22870768001	1.41111569264	left	tactile	right	visual	target	voice	338.421539986	FALSE	FALSE	FALSE	FALSE	FALSE	0	FALSE	FALSE	TRUE
e16	2015	08	06	09	36	f	21	r	91.1342097559	3	19	0.406986315968	0.746719937657	right	visual	left	tactile	target	voice	371.831809985	FALSE	FALSE	FALSE	FALSE	FALSE	0	FALSE	FALSE	TRUE
e16	2015	08	06	09	36	f	21	r	91.1342097559	3	20	1.21929814899	1.11104217306	left	tactile	left	tactile	target	voice	323.122110567	FALSE	FALSE	FALSE	FALSE	TRUE	0	FALSE	FALSE	TRUE
e16	2015	08	06	09	36	f	21	r	91.1342097559	3	21	0.404412038042	1.37248262184	right	visual	right	visual	target	voice	400.49876296	FALSE	FALSE	FALSE	FALSE	TRUE	0	FALSE	FALSE	TRUE
e16	2015	08	06	09	36	f	21	r	91.1342097559	3	22	0.497841547942	1.2246477074	left	tactile	left	visual	target	voice	341.399553348	FALSE	FALSE	FALSE	FALSE	FALSE	0	FALSE	FALSE	TRUE
e16	2015	08	06	09	36	f	21	r	91.1342097559	3	23	0.404831439955	1.49212354427	left	tactile	left	visual	target	voice	413.095132564	FALSE	FALSE	FALSE	FALSE	FALSE	0	FALSE	FALSE	TRUE
e16	2015	08	06	09	36	f	21	r	91.1342097559	3	24	0.396440242068	1.18892603213	right	tactile	left	tactile	catch	NA	NA	FALSE	FALSE	FALSE	FALSE	TRUE	0	FALSE	TRUE	TRUE
e16	2015	08	06	09	36	f	21	r	91.1342097559	3	25	0.721805899986	0.766857231294	right	tactile	left	visual	target	voice	410.357730463	FALSE	FALSE	FALSE	FALSE	FALSE	0	FALSE	FALSE	TRUE
e16	2015	08	06	09	36	f	21	r	91.1342097559	3	26	0.401252701995	1.21343203942	left	visual	left	tactile	target	voice	222.403042368	FALSE	FALSE	FALSE	FALSE	TRUE	0	FALSE	FALSE	TRUE
e16	2015	08	06	09	36	f	21	r	91.1342097559	3	27	0.40698224993	0.864684935176	right	tactile	left	visual	target	voice	438.611913472	FALSE	FALSE	FALSE	FALSE	FALSE	0	FALSE	FALSE	TRUE
e16	2015	08	06	09	36	f	21	r	91.1342097559	3	28	0.406466962071	0.510402741366	left	tactile	left	tactile	target	voice	323.619477334	FALSE	FALSE	FALSE	FALSE	FALSE	0	FALSE	FALSE	TRUE
e16	2015	08	06	09	36	f	21	r	91.1342097559	3	29	0.404727026005	1.30704377321	left	visual	right	tactile	catch	NA	NA	FALSE	FALSE	FALSE	FALSE	TRUE	0	FALSE	TRUE	TRUE
e16	2015	08	06	09	36	f	21	r	91.1342097559	3	30	0.929652140941	1.3604640949	right	tactile	right	visual	target	voice	155.647595762	FALSE	FALSE	FALSE	FALSE	TRUE	0	FALSE	FALSE	TRUE
e16	2015	08	06	09	36	f	21	r	91.1342097559	3	31	0.576190788997	1.4679777497	left	tactile	right	tactile	target	voice	264.598015114	FALSE	FALSE	FALSE	FALSE	FALSE	0	FALSE	FALSE	TRUE
e16	2015	08	06	09	36	f	21	r	91.1342097559	3	32	0.405253872043	1.4196097713	right	visual	left	tactile	target	voice	379.517638357	FALSE	FALSE	FALSE	FALSE	FALSE	0	FALSE	FALSE	TRUE
e16	2015	08	06	09	36	f	21	r	91.1342097559	3	33	1.05299737002	1.1569669747	right	tactile	right	visual	target	voice	523.245411925	FALSE	FALSE	FALSE	FALSE	TRUE	0	FALSE	FALSE	TRUE
e16	2015	08	06	09	36	f	21	r	91.1342097559	3	34	0.397331116023	1.44754727992	left	tactile	left	tactile	target	voice	67.3772487789	FALSE	FALSE	FALSE	FALSE	TRUE	0	FALSE	FALSE	TRUE
e16	2015	08	06	09	36	f	21	r	91.1342097559	3	35	0.524988849065	1.26114067057	right	visual	right	visual	target	voice	610.772493179	FALSE	FALSE	FALSE	FALSE	FALSE	0	FALSE	FALSE	TRUE
e16	2015	08	06	09	36	f	21	r	91.1342097559	3	36	0.975491621066	1.07354507185	left	visual	left	tactile	target	voice	247.078288812	FALSE	FALSE	FALSE	FALSE	TRUE	0	FALSE	TRUE	TRUE
e16	2015	08	06	09	36	f	21	r	91.1342097559	3	37	0.397438563057	0.717186495444	right	tactile	left	visual	catch	NA	NA	FALSE	FALSE	FALSE	FALSE	TRUE	0	FALSE	FALSE	TRUE
e16	2015	08	06	09	36	f	21	r	91.1342097559	3	38	1.10359573702	0.684525735487	left	visual	right	tactile	target	voice	163.154307287	FALSE	FALSE	FALSE	FALSE	FALSE	0	FALSE	FALSE	TRUE
e16	2015	08	06	09	36	f	21	r	91.1342097559	3	39	0.411558398977	0.656872258196	left	visual	right	tactile	target	voice	330.583926523	FALSE	FALSE	FALSE	FALSE	FALSE	0	FALSE	FALSE	TRUE
e16	2015	08	06	09	36	f	21	r	91.1342097559	3	40	0.399643893936	0.592793200783	left	visual	right	tactile	target	voice	122.852711007	FALSE	FALSE	FALSE	FALSE	FALSE	0	FALSE	FALSE	TRUE
e16	2015	08	06	09	36	f	21	r	2.77780140098	3	41	1.48362408602	0.648022981174	right	visual	left	visual	target	voice	252.11209862	FALSE	FALSE	FALSE	FALSE	FALSE	0	FALSE	FALSE	TRUE
e16	2015	08	06	09	36	f	21	r	2.77780140098	3	42	0.523220548057	1.49714302599	left	visual	left	tactile	target	voice	250.410556793	FALSE	FALSE	FALSE	FALSE	TRUE	0	FALSE	FALSE	TRUE
e16	2015	08	06	09	36	f	21	r	2.77780140098	3	43	0.435039662989	1.21692040149	left	tactile	left	tactile	target	voice	324.758941191	FALSE	FALSE	FALSE	FALSE	TRUE	0	FALSE	TRUE	TRUE
e16	2015	08	06	09	36	f	21	r	2.77780140098	3	44	0.401209478965	1.42410216647	left	tactile	right	tactile	target	voice	235.704691266	FALSE	FALSE	FALSE	FALSE	TRUE	0	FALSE	FALSE	TRUE
e16	2015	08	06	09	36	f	21	r	2.77780140098	3	45	1.15119642601	1.19760286577	right	visual	left	visual	target	voice	317.284108023	FALSE	FALSE	FALSE	FALSE	TRUE	0	FALSE	TRUE	TRUE
e16	2015	08	06	09	36	f	21	r	2.77780140098	3	46	0.408295203	1.17640297598	left	tactile	right	visual	target	voice	330.013686791	FALSE	FALSE	FALSE	FALSE	FALSE	0	FALSE	FALSE	TRUE
e16	2015	08	06	09	36	f	21	r	2.77780140098	3	47	0.416720545036	0.59062782727	right	tactile	right	visual	target	voice	595.006112475	FALSE	FALSE	FALSE	TRUE	TRUE	0	FALSE	FALSE	TRUE
e16	2015	08	06	09	36	f	21	r	2.77780140098	3	48	0.467007752042	1.08026789486	right	tactile	left	tactile	target	voice	131.686761742	FALSE	FALSE	FALSE	FALSE	TRUE	0	FALSE	TRUE	TRUE
e16	2015	08	06	09	36	f	21	r	2.77780140098	3	49	0.501490463037	0.807945225874	right	visual	left	visual	target	voice	432.834834908	FALSE	FALSE	FALSE	FALSE	TRUE	0	FALSE	TRUE	TRUE
e16	2015	08	06	09	36	f	21	r	2.77780140098	3	50	0.39644265105	0.95939230794	left	visual	right	visual	catch	NA	NA	FALSE	FALSE	FALSE	FALSE	TRUE	0	FALSE	TRUE	TRUE
e16	2015	08	06	09	36	f	21	r	2.77780140098	3	51	0.76532822696	0.50787495758	left	tactile	left	visual	target	voice	88.3157521021	FALSE	FALSE	FALSE	FALSE	TRUE	0	FALSE	TRUE	TRUE
e16	2015	08	06	09	36	f	21	r	2.77780140098	3	52	0.397820567945	0.741354317153	left	visual	right	tactile	target	voice	302.746400586	FALSE	FALSE	FALSE	FALSE	TRUE	0	FALSE	FALSE	TRUE
e16	2015	08	06	09	36	f	21	r	2.77780140098	3	53	0.403110286919	1.47379404434	right	tactile	left	tactile	target	voice	144.174242276	FALSE	FALSE	FALSE	FALSE	TRUE	0	FALSE	TRUE	TRUE
e16	2015	08	06	09	36	f	21	r	2.77780140098	3	54	0.392941129976	1.17194443954	left	tactile	left	tactile	target	voice	419.759981101	FALSE	FALSE	FALSE	FALSE	FALSE	0	FALSE	FALSE	TRUE
e16	2015	08	06	09	36	f	21	r	2.77780140098	3	55	1.54137389408	1.48227606896	right	tactile	right	tactile	target	voice	145.094544743	FALSE	FALSE	FALSE	FALSE	TRUE	0	FALSE	FALSE	TRUE
e16	2015	08	06	09	36	f	21	r	2.77780140098	3	56	0.401326564956	0.919959234573	left	tactile	right	tactile	target	voice	278.963127173	FALSE	FALSE	FALSE	FALSE	TRUE	0	FALSE	FALSE	TRUE
e16	2015	08	06	09	36	f	21	r	2.77780140098	3	57	0.401369041996	1.23608532296	left	tactile	left	visual	target	voice	472.295178799	FALSE	FALSE	FALSE	FALSE	TRUE	0	FALSE	FALSE	TRUE
e16	2015	08	06	09	36	f	21	r	2.77780140098	3	58	0.40867429506	0.864484282699	right	visual	right	tactile	catch	NA	NA	FALSE	FALSE	FALSE	FALSE	FALSE	0	FALSE	FALSE	TRUE
e16	2015	08	06	09	36	f	21	r	2.77780140098	3	59	2.052946863	1.2175223934	right	visual	right	visual	target	voice	NA	TRUE	FALSE	FALSE	FALSE	FALSE	0	FALSE	FALSE	FALSE
e16	2015	08	06	09	36	f	21	r	2.77780140098	3	60	1.39935117599	1.27881290978	left	tactile	right	visual	target	voice	318.186095916	FALSE	FALSE	FALSE	FALSE	FALSE	0	FALSE	FALSE	TRUE
e16	2015	08	06	09	36	f	21	r	2.77780140098	3	61	0.445798409986	0.902677430288	right	tactile	left	visual	target	voice	525.509910425	FALSE	FALSE	FALSE	FALSE	TRUE	0	FALSE	TRUE	TRUE
e16	2015	08	06	09	36	f	21	r	2.77780140098	3	62	1.61510912504	1.17528895893	left	tactile	left	tactile	target	voice	194.914435735	FALSE	FALSE	FALSE	FALSE	FALSE	0	FALSE	FALSE	TRUE
e16	2015	08	06	09	36	f	21	r	2.77780140098	3	63	0.494425242068	0.604034951506	right	visual	right	visual	target	voice	386.89690223	FALSE	FALSE	FALSE	FALSE	TRUE	0	FALSE	FALSE	TRUE
e16	2015	08	06	09	36	f	21	r	2.77780140098	3	64	0.424625495914	1.20917120433	right	visual	right	visual	target	voice	555.6719054	FALSE	FALSE	FALSE	FALSE	TRUE	0	FALSE	FALSE	TRUE
e16	2015	08	06	09	36	f	21	r	2.77780140098	3	65	1.67725615099	0.970450201897	left	visual	left	visual	catch	NA	NA	FALSE	FALSE	FALSE	FALSE	TRUE	0	FALSE	TRUE	TRUE
e16	2015	08	06	09	36	f	21	r	2.77780140098	3	66	1.03210169205	1.03958203636	left	tactile	right	tactile	target	voice	185.838274425	FALSE	FALSE	FALSE	FALSE	TRUE	0	FALSE	TRUE	TRUE
e16	2015	08	06	09	36	f	21	r	2.77780140098	3	67	0.509359796997	0.603650761537	right	visual	right	tactile	target	voice	328.509140178	FALSE	FALSE	FALSE	FALSE	FALSE	0	FALSE	FALSE	TRUE
e16	2015	08	06	09	36	f	21	r	2.77780140098	3	68	0.407578536076	0.926982172129	right	visual	left	visual	catch	NA	NA	FALSE	FALSE	FALSE	FALSE	TRUE	0	FALSE	FALSE	TRUE
e16	2015	08	06	09	36	f	21	r	2.77780140098	3	69	0.551762219984	0.501735479103	left	tactile	right	visual	target	voice	131.554461666	FALSE	FALSE	FALSE	FALSE	TRUE	0	FALSE	FALSE	TRUE
e16	2015	08	06	09	36	f	21	r	2.77780140098	3	70	0.55371640902	1.30414667022	right	tactile	right	tactile	target	voice	440.938953543	FALSE	FALSE	FALSE	FALSE	TRUE	0	FALSE	TRUE	TRUE
e16	2015	08	06	09	36	f	21	r	2.77780140098	3	71	0.395574148977	1.44078927043	right	visual	left	tactile	target	voice	236.495338264	FALSE	FALSE	FALSE	TRUE	TRUE	0	FALSE	FALSE	TRUE
e16	2015	08	06	09	36	f	21	r	2.77780140098	3	72	0.401417362038	0.928698821517	left	tactile	left	tactile	target	voice	390.575262369	FALSE	FALSE	FALSE	FALSE	FALSE	0	FALSE	FALSE	TRUE
e16	2015	08	06	09	36	f	21	r	2.77780140098	3	73	0.410747432034	1.03449031839	left	visual	left	tactile	target	voice	224.237740389	FALSE	FALSE	FALSE	FALSE	TRUE	0	FALSE	TRUE	TRUE
e16	2015	08	06	09	36	f	21	r	2.77780140098	3	74	0.407218829961	0.565740752092	left	visual	right	tactile	target	voice	377.213182743	FALSE	FALSE	FALSE	FALSE	FALSE	0	FALSE	FALSE	TRUE
e16	2015	08	06	09	36	f	21	r	2.77780140098	3	75	0.405026296969	0.817112053248	right	tactile	right	visual	target	voice	537.79864742	FALSE	FALSE	FALSE	FALSE	TRUE	0	FALSE	TRUE	TRUE
e16	2015	08	06	09	36	f	21	r	2.77780140098	3	76	0.468298488995	1.25145458861	right	visual	left	tactile	target	voice	279.112155084	FALSE	FALSE	FALSE	FALSE	FALSE	0	FALSE	FALSE	TRUE
e16	2015	08	06	09	36	f	21	r	2.77780140098	3	77	0.574287533993	0.976551717267	right	visual	left	visual	target	voice	413.182305521	FALSE	FALSE	FALSE	FALSE	FALSE	0	FALSE	FALSE	TRUE
e16	2015	08	06	09	36	f	21	r	2.77780140098	3	78	2.33456554404	0.680027856542	right	visual	left	visual	target	voice	560.480695218	FALSE	FALSE	FALSE	TRUE	TRUE	0	FALSE	FALSE	TRUE
e16	2015	08	06	09	36	f	21	r	2.77780140098	3	79	0.424138082075	0.537001474491	left	tactile	left	visual	target	voice	511.667474289	FALSE	FALSE	FALSE	FALSE	TRUE	0	FALSE	FALSE	TRUE
e16	2015	08	06	09	36	f	21	r	2.77780140098	3	80	0.420170600992	0.829625126518	right	visual	right	visual	target	voice	204.675603192	FALSE	FALSE	FALSE	TRUE	TRUE	0	FALSE	FALSE	TRUE
e16	2015	08	06	09	36	f	21	r	2.90109655797	3	81	1.106912471	0.995927791931	right	visual	right	tactile	target	voice	NA	TRUE	FALSE	FALSE	FALSE	FALSE	0	FALSE	FALSE	FALSE
e16	2015	08	06	09	36	f	21	r	2.90109655797	3	82	1.08578135201	0.64794722516	left	tactile	right	tactile	target	voice	238.578863558	FALSE	FALSE	FALSE	FALSE	FALSE	0	FALSE	FALSE	TRUE
e16	2015	08	06	09	36	f	21	r	2.90109655797	3	83	0.452967218007	0.768208243047	left	tactile	left	tactile	catch	NA	NA	FALSE	FALSE	FALSE	FALSE	TRUE	0	FALSE	FALSE	TRUE
e16	2015	08	06	09	36	f	21	r	2.90109655797	3	84	1.16841151495	0.63914999107	left	visual	right	visual	target	voice	325.760103646	FALSE	FALSE	FALSE	FALSE	FALSE	0	FALSE	FALSE	TRUE
e16	2015	08	06	09	36	f	21	r	2.90109655797	3	85	1.17071646394	1.1788001362	right	visual	left	visual	target	voice	271.85439656	FALSE	FALSE	FALSE	FALSE	TRUE	0	FALSE	TRUE	TRUE
e16	2015	08	06	09	36	f	21	r	2.90109655797	3	86	0.404247423983	1.19304075231	right	tactile	left	tactile	target	voice	273.632860393	FALSE	FALSE	FALSE	FALSE	TRUE	0	FALSE	TRUE	TRUE
e16	2015	08	06	09	36	f	21	r	2.90109655797	3	87	0.399072280969	1.13015787164	right	visual	right	tactile	target	voice	105.055591092	FALSE	FALSE	FALSE	FALSE	FALSE	0	FALSE	FALSE	TRUE
e16	2015	08	06	09	36	f	21	r	2.90109655797	3	88	0.472685110988	0.756435327431	left	visual	right	visual	target	voice	394.364871318	FALSE	FALSE	FALSE	FALSE	FALSE	0	FALSE	FALSE	TRUE
e16	2015	08	06	09	36	f	21	r	2.90109655797	3	89	0.417623595917	1.42328082328	left	visual	right	visual	target	voice	336.14919649	FALSE	FALSE	FALSE	FALSE	FALSE	0	FALSE	FALSE	TRUE
e16	2015	08	06	09	36	f	21	r	2.90109655797	3	90	0.418772984063	1.31162488871	left	tactile	right	tactile	target	voice	319.16319998	FALSE	FALSE	FALSE	FALSE	TRUE	0	FALSE	FALSE	TRUE
e16	2015	08	06	09	36	f	21	r	2.90109655797	3	91	0.405699133058	1.04555354871	left	visual	left	tactile	target	voice	320.974610979	FALSE	FALSE	FALSE	FALSE	TRUE	0	FALSE	FALSE	TRUE
e16	2015	08	06	09	36	f	21	r	2.90109655797	3	92	0.408784214058	1.1801464427	left	tactile	right	tactile	target	voice	310.74890506	FALSE	FALSE	FALSE	FALSE	TRUE	0	FALSE	TRUE	TRUE
e16	2015	08	06	09	36	f	21	r	2.90109655797	3	93	0.406597276917	0.787003052172	left	visual	right	tactile	target	voice	445.502483519	FALSE	FALSE	FALSE	FALSE	FALSE	0	FALSE	FALSE	TRUE
e16	2015	08	06	09	36	f	21	r	2.90109655797	3	94	1.34884854092	1.13939202721	left	tactile	right	visual	target	voice	269.983634586	FALSE	FALSE	FALSE	FALSE	TRUE	0	FALSE	FALSE	TRUE
e16	2015	08	06	09	36	f	21	r	2.90109655797	3	95	0.468631154043	1.24929476846	right	tactile	left	visual	target	voice	3.43968626112	FALSE	FALSE	FALSE	TRUE	TRUE	0	FALSE	TRUE	TRUE
e16	2015	08	06	09	36	f	21	r	2.90109655797	3	96	0.648456815048	0.710154263295	right	visual	right	tactile	target	voice	407.240861328	FALSE	FALSE	FALSE	FALSE	TRUE	0	FALSE	TRUE	TRUE
e16	2015	08	06	09	36	f	21	r	2.90109655797	3	97	0.494189508026	0.836742283972	left	tactile	left	visual	target	voice	485.005600727	FALSE	FALSE	FALSE	FALSE	FALSE	0	FALSE	FALSE	TRUE
e16	2015	08	06	09	36	f	21	r	2.90109655797	3	98	0.399343839963	1.01734019179	right	tactile	left	tactile	target	voice	232.235656003	FALSE	FALSE	FALSE	FALSE	TRUE	0	FALSE	TRUE	TRUE
e16	2015	08	06	09	36	f	21	r	2.90109655797	3	99	0.444324524025	0.931101530366	right	tactile	right	visual	target	voice	423.071786412	FALSE	FALSE	FALSE	FALSE	TRUE	0	FALSE	TRUE	TRUE
e16	2015	08	06	09	36	f	21	r	2.90109655797	3	100	0.548568426049	1.25626317562	right	tactile	left	tactile	target	voice	234.769986128	FALSE	FALSE	FALSE	FALSE	TRUE	0	FALSE	TRUE	TRUE
e16	2015	08	06	09	36	f	21	r	2.90109655797	3	101	0.494213361992	0.852166439346	right	tactile	left	tactile	target	voice	269.58859351	FALSE	FALSE	FALSE	FALSE	TRUE	0	FALSE	TRUE	TRUE
e16	2015	08	06	09	36	f	21	r	2.90109655797	3	102	0.396352150012	1.43639202489	right	tactile	left	tactile	target	voice	58.9677889366	FALSE	FALSE	FALSE	FALSE	TRUE	0	FALSE	TRUE	TRUE
e16	2015	08	06	09	36	f	21	r	2.90109655797	3	103	0.503244227031	0.709438126961	left	visual	right	tactile	target	voice	188.015365624	FALSE	FALSE	FALSE	FALSE	FALSE	0	FALSE	FALSE	TRUE
e16	2015	08	06	09	36	f	21	r	2.90109655797	3	104	0.450720460969	0.908337179224	left	visual	right	visual	target	voice	387.958876439	FALSE	FALSE	FALSE	FALSE	TRUE	0	FALSE	FALSE	TRUE
e16	2015	08	06	09	36	f	21	r	2.90109655797	3	105	0.406045409967	1.39068034116	right	tactile	left	visual	target	voice	333.747831522	FALSE	FALSE	FALSE	FALSE	FALSE	0	FALSE	FALSE	TRUE
e16	2015	08	06	09	36	f	21	r	2.90109655797	3	106	0.401179589913	1.43919824552	left	tactile	right	tactile	target	voice	21.8219602248	FALSE	FALSE	FALSE	TRUE	TRUE	0	FALSE	TRUE	TRUE
e16	2015	08	06	09	36	f	21	r	2.90109655797	3	107	0.429652758059	1.30105965725	left	visual	right	tactile	target	voice	265.836761449	FALSE	FALSE	FALSE	FALSE	TRUE	0	FALSE	FALSE	TRUE
e16	2015	08	06	09	36	f	21	r	2.90109655797	3	108	0.408901952091	0.91955891719	left	visual	left	tactile	target	voice	312.040940509	FALSE	FALSE	FALSE	FALSE	FALSE	0	FALSE	FALSE	TRUE
e16	2015	08	06	09	36	f	21	r	2.90109655797	3	109	0.435678331996	0.82569166069	left	visual	right	visual	target	voice	465.040244162	FALSE	FALSE	FALSE	TRUE	TRUE	0	FALSE	TRUE	TRUE
e16	2015	08	06	09	36	f	21	r	2.90109655797	3	110	0.40234808391	0.662091039012	left	tactile	left	tactile	target	voice	513.60423665	FALSE	FALSE	FALSE	FALSE	FALSE	0	FALSE	FALSE	TRUE
e16	2015	08	06	09	36	f	21	r	2.90109655797	3	111	0.404616554966	0.576432418428	right	tactile	right	visual	target	voice	693.075136282	FALSE	FALSE	FALSE	FALSE	FALSE	0	FALSE	FALSE	TRUE
e16	2015	08	06	09	36	f	21	r	2.90109655797	3	112	0.409912114963	0.618567613467	right	tactile	right	visual	catch	NA	NA	FALSE	FALSE	FALSE	FALSE	TRUE	0	FALSE	TRUE	TRUE
e16	2015	08	06	09	36	f	21	r	2.90109655797	3	113	0.651711547049	1.24177310025	right	visual	right	tactile	target	voice	313.355745515	FALSE	FALSE	FALSE	FALSE	TRUE	0	FALSE	TRUE	TRUE
e16	2015	08	06	09	36	f	21	r	2.90109655797	3	114	0.787896941067	0.61142803684	right	visual	left	tactile	target	NA	NA	FALSE	FALSE	FALSE	FALSE	TRUE	0	FALSE	TRUE	TRUE
e16	2015	08	06	09	36	f	21	r	2.90109655797	3	115	0.997238457086	1.40292888169	right	visual	left	visual	target	voice	352.347482112	FALSE	FALSE	FALSE	FALSE	TRUE	0	FALSE	TRUE	TRUE
e16	2015	08	06	09	36	f	21	r	2.90109655797	3	116	0.46455186198	1.21182712355	right	visual	right	visual	target	voice	591.807349236	FALSE	FALSE	FALSE	FALSE	TRUE	0	FALSE	TRUE	TRUE
e16	2015	08	06	09	36	f	21	r	2.90109655797	3	117	0.404790796922	1.41578720433	right	visual	left	tactile	catch	NA	NA	FALSE	FALSE	FALSE	FALSE	TRUE	0	FALSE	TRUE	TRUE
e16	2015	08	06	09	36	f	21	r	2.90109655797	3	118	1.38940395892	1.18796801278	left	tactile	left	visual	target	voice	NA	TRUE	FALSE	FALSE	FALSE	TRUE	0	FALSE	FALSE	FALSE
e16	2015	08	06	09	36	f	21	r	2.90109655797	3	119	0.987634240068	0.538098020724	right	tactile	right	tactile	target	voice	306.020534947	FALSE	FALSE	FALSE	FALSE	TRUE	0	FALSE	TRUE	TRUE
e16	2015	08	06	09	36	f	21	r	2.90109655797	3	120	0.447822488961	0.929754834219	right	tactile	right	tactile	target	voice	268.477358506	FALSE	FALSE	FALSE	FALSE	FALSE	0	FALSE	FALSE	TRUE
e16	2015	08	06	09	36	f	21	r	3.7478273859	3	121	2.41187435098	0.979713056615	right	tactile	right	visual	target	voice	157.276256126	FALSE	FALSE	FALSE	FALSE	FALSE	0	FALSE	FALSE	TRUE
e16	2015	08	06	09	36	f	21	r	3.7478273859	3	122	0.450752240024	1.22977949462	right	tactile	right	tactile	target	voice	291.685035103	FALSE	FALSE	FALSE	FALSE	FALSE	0	FALSE	FALSE	TRUE
e16	2015	08	06	09	36	f	21	r	3.7478273859	3	123	0.410792762996	1.43756443218	right	tactile	right	visual	target	voice	326.385997585	FALSE	FALSE	FALSE	FALSE	TRUE	0	FALSE	FALSE	TRUE
e16	2015	08	06	09	36	f	21	r	3.7478273859	3	124	0.399028956075	0.615074670796	left	visual	left	visual	target	voice	459.444553941	FALSE	FALSE	FALSE	FALSE	TRUE	0	FALSE	FALSE	TRUE
e16	2015	08	06	09	36	f	21	r	3.7478273859	3	125	0.42888838693	0.794005226889	right	tactile	left	visual	target	voice	498.680533841	FALSE	FALSE	FALSE	FALSE	TRUE	0	FALSE	TRUE	TRUE
e16	2015	08	06	09	36	f	21	r	3.7478273859	3	126	0.662814256968	0.868420123042	left	visual	left	visual	target	voice	NA	TRUE	FALSE	FALSE	FALSE	FALSE	0	FALSE	FALSE	FALSE
e16	2015	08	06	09	36	f	21	r	3.7478273859	3	127	0.943379723933	1.39537377535	right	visual	left	tactile	target	voice	298.090254306	FALSE	FALSE	FALSE	FALSE	TRUE	0	FALSE	FALSE	TRUE
e16	2015	08	06	09	36	f	21	r	3.7478273859	3	128	0.412940877955	0.546052647752	left	tactile	left	visual	catch	NA	NA	FALSE	FALSE	FALSE	FALSE	TRUE	0	FALSE	TRUE	TRUE
e16	2015	08	06	09	36	f	21	r	3.7478273859	3	129	0.591168501996	0.645137925173	right	visual	left	tactile	target	voice	362.625169568	FALSE	FALSE	FALSE	FALSE	FALSE	0	FALSE	FALSE	TRUE
e16	2015	08	06	09	36	f	21	r	3.7478273859	3	130	0.620390234049	0.714327118225	left	visual	left	visual	target	voice	524.045269471	FALSE	FALSE	FALSE	FALSE	FALSE	0	FALSE	FALSE	TRUE
e16	2015	08	06	09	36	f	21	r	3.7478273859	3	131	0.575604725978	0.806401898106	left	tactile	right	visual	target	voice	280.109960586	FALSE	FALSE	FALSE	FALSE	TRUE	0	FALSE	FALSE	TRUE
e16	2015	08	06	09	36	f	21	r	3.7478273859	3	132	0.421183355968	0.93629297545	right	visual	left	tactile	target	voice	283.690382261	FALSE	FALSE	FALSE	FALSE	TRUE	0	FALSE	FALSE	TRUE
e16	2015	08	06	09	36	f	21	r	3.7478273859	3	133	0.401224983972	0.801529718992	right	tactile	left	visual	target	voice	333.6881547	FALSE	FALSE	FALSE	FALSE	TRUE	0	FALSE	FALSE	TRUE
e16	2015	08	06	09	36	f	21	r	3.7478273859	3	134	0.418949694023	1.45819049918	right	tactile	left	visual	target	voice	304.571410525	FALSE	FALSE	FALSE	FALSE	TRUE	0	FALSE	TRUE	TRUE
e16	2015	08	06	09	36	f	21	r	3.7478273859	3	135	0.413230624981	1.34625948949	right	visual	right	visual	target	voice	152.66048722	FALSE	FALSE	FALSE	TRUE	TRUE	0	FALSE	FALSE	TRUE
e16	2015	08	06	09	36	f	21	r	3.7478273859	3	136	0.419387756963	0.745287018372	left	tactile	left	visual	target	voice	516.80769946	FALSE	FALSE	FALSE	FALSE	TRUE	0	FALSE	TRUE	TRUE
e16	2015	08	06	09	36	f	21	r	3.7478273859	3	137	0.460628478904	1.12577749126	left	visual	left	tactile	target	voice	177.801401471	FALSE	FALSE	FALSE	FALSE	FALSE	0	FALSE	FALSE	TRUE
e16	2015	08	06	09	36	f	21	r	3.7478273859	3	138	0.458791179	0.813012624247	left	tactile	right	visual	target	voice	262.711691437	FALSE	FALSE	FALSE	FALSE	TRUE	0	FALSE	TRUE	TRUE
e16	2015	08	06	09	36	f	21	r	3.7478273859	3	139	0.382457865053	0.886534005682	right	visual	right	visual	catch	NA	NA	FALSE	FALSE	FALSE	FALSE	TRUE	0	FALSE	FALSE	TRUE
e16	2015	08	06	09	36	f	21	r	3.7478273859	3	140	0.92983260192	0.596096826562	left	visual	right	visual	target	voice	424.434633111	FALSE	FALSE	FALSE	TRUE	TRUE	0	FALSE	FALSE	TRUE
e16	2015	08	06	09	36	f	21	r	3.7478273859	3	141	0.998671332025	1.18065747747	right	visual	right	tactile	target	voice	38.6989301769	FALSE	FALSE	FALSE	FALSE	TRUE	0	FALSE	FALSE	TRUE
e16	2015	08	06	09	36	f	21	r	3.7478273859	3	142	0.814475242049	0.84257609943	right	tactile	right	tactile	catch	NA	NA	FALSE	FALSE	FALSE	FALSE	TRUE	0	FALSE	TRUE	TRUE
e16	2015	08	06	09	36	f	21	r	3.7478273859	3	143	0.564367820974	1.32791310725	left	visual	left	visual	target	voice	675.236125477	FALSE	FALSE	FALSE	FALSE	FALSE	0	FALSE	FALSE	TRUE
e16	2015	08	06	09	36	f	21	r	3.7478273859	3	144	0.462926444015	0.735883457506	left	visual	right	tactile	target	voice	225.649838219	FALSE	FALSE	FALSE	TRUE	TRUE	0	FALSE	FALSE	TRUE
e16	2015	08	06	09	36	f	21	r	3.7478273859	3	145	0.522329043015	0.691244969602	right	tactile	right	tactile	target	voice	314.326357096	FALSE	FALSE	FALSE	FALSE	TRUE	0	FALSE	TRUE	TRUE
e16	2015	08	06	09	36	f	21	r	3.7478273859	3	146	0.400405094028	1.03511448948	right	tactile	left	tactile	target	voice	361.224786146	FALSE	FALSE	FALSE	FALSE	TRUE	0	FALSE	TRUE	TRUE
e16	2015	08	06	09	36	f	21	r	3.7478273859	3	147	0.470118893078	1.27123122689	left	tactile	left	tactile	target	voice	282.172475825	FALSE	FALSE	FALSE	FALSE	TRUE	0	FALSE	TRUE	TRUE
e16	2015	08	06	09	36	f	21	r	3.7478273859	3	148	1.40200051002	0.723589815161	left	visual	left	tactile	target	voice	977.290702518	FALSE	FALSE	FALSE	FALSE	FALSE	0	FALSE	FALSE	TRUE
e16	2015	08	06	09	36	f	21	r	3.7478273859	3	149	0.533395099919	1.2095962215	right	visual	right	tactile	target	voice	141.242742306	FALSE	FALSE	FALSE	FALSE	FALSE	0	FALSE	FALSE	TRUE
e16	2015	08	06	09	36	f	21	r	3.7478273859	3	150	0.497377924039	0.670448273308	left	visual	right	visual	target	voice	394.424357451	FALSE	FALSE	FALSE	FALSE	TRUE	0	FALSE	TRUE	TRUE
e16	2015	08	06	09	36	f	21	r	3.7478273859	3	151	0.56649651099	1.23653963175	left	visual	left	visual	target	voice	435.087381047	FALSE	FALSE	FALSE	FALSE	TRUE	0	FALSE	FALSE	TRUE
e16	2015	08	06	09	36	f	21	r	3.7478273859	3	152	0.41398995195	0.553605692912	right	tactile	right	visual	target	voice	766.284438781	FALSE	FALSE	FALSE	FALSE	TRUE	0	FALSE	TRUE	TRUE
e16	2015	08	06	09	36	f	21	r	3.7478273859	3	153	0.398599505075	1.49978433768	right	visual	right	tactile	target	voice	81.0998160159	FALSE	FALSE	FALSE	FALSE	TRUE	0	FALSE	TRUE	TRUE
e16	2015	08	06	09	36	f	21	r	3.7478273859	3	154	0.49900022801	1.20912772015	right	visual	left	tactile	target	voice	289.630770683	FALSE	FALSE	FALSE	TRUE	TRUE	0	FALSE	FALSE	TRUE
e16	2015	08	06	09	36	f	21	r	3.7478273859	3	155	0.44388240308	1.16357918592	left	visual	left	visual	target	voice	301.078088814	FALSE	FALSE	FALSE	FALSE	TRUE	0	FALSE	FALSE	TRUE
e16	2015	08	06	09	36	f	21	r	3.7478273859	3	156	0.448657338042	1.28461081814	right	tactile	right	tactile	target	voice	77.3707355838	FALSE	FALSE	FALSE	FALSE	TRUE	0	FALSE	FALSE	TRUE
e16	2015	08	06	09	36	f	21	r	3.7478273859	3	157	0.477976816008	1.43540294337	left	visual	right	visual	target	voice	200.748004369	FALSE	FALSE	FALSE	FALSE	TRUE	0	FALSE	FALSE	TRUE
e16	2015	08	06	09	36	f	21	r	3.7478273859	3	158	0.465818344965	1.12121343154	left	tactile	right	tactile	target	voice	337.422155077	FALSE	FALSE	FALSE	FALSE	FALSE	0	FALSE	FALSE	TRUE
e16	2015	08	06	09	36	f	21	r	3.7478273859	3	159	0.398895209073	1.10989814458	right	tactile	left	visual	target	voice	47.3531230818	FALSE	FALSE	FALSE	FALSE	TRUE	0	FALSE	TRUE	TRUE
e16	2015	08	06	09	36	f	21	r	3.7478273859	3	160	0.466121766949	0.828835397062	right	tactile	right	tactile	target	voice	497.904821765	FALSE	FALSE	FALSE	FALSE	TRUE	0	FALSE	TRUE	TRUE
e16	2015	08	06	09	36	f	21	r	49.516487016	4	1	2.04790300701	1.1269051987	left	tactile	right	tactile	target	voice	230.087713106	FALSE	FALSE	FALSE	FALSE	FALSE	0	FALSE	FALSE	TRUE
e16	2015	08	06	09	36	f	21	r	49.516487016	4	2	0.41380445403	1.19969112582	right	tactile	right	visual	target	voice	414.865318919	FALSE	FALSE	FALSE	FALSE	FALSE	0	FALSE	FALSE	TRUE
e16	2015	08	06	09	36	f	21	r	49.516487016	4	3	1.23588099098	0.93160774121	left	tactile	left	tactile	target	voice	222.915036487	FALSE	FALSE	FALSE	FALSE	FALSE	0	FALSE	FALSE	TRUE
e16	2015	08	06	09	36	f	21	r	49.516487016	4	4	0.43351363705	1.12380223675	left	visual	left	visual	target	voice	382.645831909	FALSE	FALSE	FALSE	FALSE	FALSE	0	FALSE	FALSE	TRUE
e16	2015	08	06	09	36	f	21	r	49.516487016	4	5	0.425617257948	0.535734759041	left	tactile	left	visual	target	voice	368.022563634	FALSE	FALSE	FALSE	FALSE	FALSE	0	FALSE	FALSE	TRUE
e16	2015	08	06	09	36	f	21	r	49.516487016	4	6	0.410090700956	0.99539317106	left	visual	left	visual	target	voice	NA	TRUE	FALSE	FALSE	FALSE	FALSE	0	FALSE	FALSE	FALSE
e16	2015	08	06	09	36	f	21	r	49.516487016	4	7	1.44855575496	1.38609704214	left	visual	right	tactile	target	voice	191.039399593	FALSE	FALSE	FALSE	FALSE	TRUE	0	FALSE	FALSE	TRUE
e16	2015	08	06	09	36	f	21	r	49.516487016	4	8	0.415492992033	0.983431289912	left	visual	right	visual	target	voice	355.578880757	FALSE	FALSE	FALSE	FALSE	TRUE	0	FALSE	FALSE	TRUE
e16	2015	08	06	09	36	f	21	r	49.516487016	4	9	0.44845221797	0.967799622185	left	tactile	left	visual	target	voice	188.103095512	FALSE	FALSE	FALSE	FALSE	TRUE	0	FALSE	FALSE	TRUE
e16	2015	08	06	09	36	f	21	r	49.516487016	4	10	0.559851016034	0.690630555458	left	visual	left	tactile	target	voice	441.451770253	FALSE	FALSE	FALSE	FALSE	FALSE	0	FALSE	FALSE	TRUE
e16	2015	08	06	09	36	f	21	r	49.516487016	4	11	0.399070788058	0.674811050299	right	visual	left	tactile	target	voice	371.29249936	FALSE	FALSE	FALSE	FALSE	TRUE	0	FALSE	TRUE	TRUE
e16	2015	08	06	09	36	f	21	r	49.516487016	4	12	0.50381457794	1.49676486371	right	tactile	right	visual	catch	voice	NA	TRUE	FALSE	FALSE	FALSE	FALSE	0	FALSE	FALSE	FALSE
e16	2015	08	06	09	36	f	21	r	49.516487016	4	13	1.1959188279	1.34207323584	left	tactile	left	tactile	target	voice	371.631724876	FALSE	FALSE	FALSE	FALSE	FALSE	0	FALSE	FALSE	TRUE
e16	2015	08	06	09	36	f	21	r	49.516487016	4	14	0.406677282066	1.07907255814	right	tactile	left	tactile	target	voice	234.72716962	FALSE	FALSE	FALSE	TRUE	TRUE	0	FALSE	FALSE	TRUE
e16	2015	08	06	09	36	f	21	r	49.516487016	4	15	1.2491919531	1.07453256013	left	tactile	right	tactile	catch	NA	NA	FALSE	FALSE	FALSE	FALSE	TRUE	0	FALSE	FALSE	TRUE
e16	2015	08	06	09	36	f	21	r	49.516487016	4	16	1.29250047705	1.04163976991	right	tactile	right	tactile	target	voice	300.845713704	FALSE	FALSE	FALSE	FALSE	FALSE	0	FALSE	FALSE	TRUE
e16	2015	08	06	09	36	f	21	r	49.516487016	4	17	1.21726364398	0.800478387933	right	visual	left	tactile	target	voice	742.729845806	FALSE	FALSE	FALSE	FALSE	TRUE	0	FALSE	FALSE	TRUE
e16	2015	08	06	09	36	f	21	r	49.516487016	4	18	0.396829700097	0.994861932057	left	visual	right	tactile	target	voice	NA	TRUE	FALSE	FALSE	FALSE	TRUE	0	FALSE	FALSE	FALSE
e16	2015	08	06	09	36	f	21	r	49.516487016	4	19	2.41565184109	0.523949512529	left	tactile	right	tactile	target	voice	355.079528177	FALSE	FALSE	FALSE	FALSE	FALSE	0	FALSE	FALSE	TRUE
e16	2015	08	06	09	36	f	21	r	49.516487016	4	20	0.431009146967	0.92664648963	left	visual	right	tactile	target	voice	302.208278095	FALSE	FALSE	FALSE	FALSE	FALSE	0	FALSE	FALSE	TRUE
e16	2015	08	06	09	36	f	21	r	49.516487016	4	21	0.396714847069	0.968781318137	right	tactile	right	tactile	target	voice	471.357343486	FALSE	FALSE	FALSE	FALSE	TRUE	0	FALSE	FALSE	TRUE
e16	2015	08	06	09	36	f	21	r	49.516487016	4	22	0.405394371948	1.28993914435	right	tactile	left	tactile	target	voice	89.9790812982	FALSE	FALSE	FALSE	FALSE	TRUE	0	FALSE	FALSE	TRUE
e16	2015	08	06	09	36	f	21	r	49.516487016	4	23	0.399762742105	1.06155635996	right	visual	right	visual	target	voice	412.240465754	FALSE	FALSE	FALSE	FALSE	TRUE	0	FALSE	FALSE	TRUE
e16	2015	08	06	09	36	f	21	r	49.516487016	4	24	0.410782707972	1.14604084269	left	tactile	left	visual	target	voice	381.005872041	FALSE	FALSE	FALSE	TRUE	TRUE	0	FALSE	FALSE	TRUE
e16	2015	08	06	09	36	f	21	r	49.516487016	4	25	1.05262560293	0.810743687568	right	tactile	right	tactile	target	voice	422.735179076	FALSE	FALSE	FALSE	FALSE	TRUE	0	FALSE	FALSE	TRUE
e16	2015	08	06	09	36	f	21	r	49.516487016	4	26	1.17694716598	1.08062180846	left	tactile	right	tactile	target	voice	143.656852306	FALSE	FALSE	FALSE	FALSE	TRUE	0	FALSE	FALSE	TRUE
e16	2015	08	06	09	36	f	21	r	49.516487016	4	27	0.403630721034	1.12426382118	left	tactile	left	tactile	catch	NA	NA	FALSE	FALSE	FALSE	FALSE	TRUE	0	FALSE	FALSE	TRUE
e16	2015	08	06	09	36	f	21	r	49.516487016	4	28	0.927923289011	0.596437522875	right	tactile	left	tactile	target	voice	598.848128808	FALSE	FALSE	FALSE	FALSE	TRUE	0	FALSE	FALSE	TRUE
e16	2015	08	06	09	36	f	21	r	49.516487016	4	29	1.09930877399	0.823456217455	left	visual	left	tactile	catch	NA	NA	FALSE	FALSE	FALSE	FALSE	TRUE	0	FALSE	FALSE	TRUE
e16	2015	08	06	09	36	f	21	r	49.516487016	4	30	0.740826803027	0.733405370521	right	visual	left	visual	target	voice	600.101077231	FALSE	FALSE	FALSE	FALSE	TRUE	0	FALSE	FALSE	TRUE
e16	2015	08	06	09	36	f	21	r	49.516487016	4	31	0.440026263008	0.550562740641	left	visual	left	tactile	target	voice	532.807594049	FALSE	FALSE	FALSE	FALSE	TRUE	0	FALSE	FALSE	TRUE
e16	2015	08	06	09	36	f	21	r	49.516487016	4	32	0.404087470029	1.01708121033	left	visual	left	visual	target	voice	459.573306493	FALSE	FALSE	FALSE	FALSE	TRUE	0	FALSE	FALSE	TRUE
e16	2015	08	06	09	36	f	21	r	49.516487016	4	33	0.399326681974	0.978666166265	left	visual	right	visual	target	voice	143.647921388	FALSE	FALSE	FALSE	TRUE	TRUE	0	FALSE	FALSE	TRUE
e16	2015	08	06	09	36	f	21	r	49.516487016	4	34	0.408195486991	0.800570104588	left	tactile	left	visual	target	voice	435.427527176	FALSE	FALSE	FALSE	FALSE	TRUE	0	FALSE	TRUE	TRUE
e16	2015	08	06	09	36	f	21	r	49.516487016	4	35	1.16951244394	0.931886920368	right	tactile	left	visual	catch	NA	NA	FALSE	FALSE	FALSE	FALSE	TRUE	0	FALSE	FALSE	TRUE
e16	2015	08	06	09	36	f	21	r	49.516487016	4	36	1.12422506395	1.06356064287	left	tactile	right	visual	target	voice	470.519672846	FALSE	FALSE	FALSE	FALSE	TRUE	0	FALSE	FALSE	TRUE
e16	2015	08	06	09	36	f	21	r	49.516487016	4	37	0.397496386897	1.00258537906	right	visual	right	tactile	target	voice	254.117628676	FALSE	FALSE	FALSE	FALSE	TRUE	0	FALSE	TRUE	TRUE
e16	2015	08	06	09	36	f	21	r	49.516487016	4	38	1.19337850297	1.04020497303	left	visual	right	visual	target	voice	449.438504642	FALSE	FALSE	FALSE	FALSE	TRUE	0	FALSE	TRUE	TRUE
e16	2015	08	06	09	36	f	21	r	49.516487016	4	39	0.415164703969	1.26588446679	right	visual	right	tactile	target	voice	348.622739897	FALSE	FALSE	FALSE	TRUE	TRUE	0	FALSE	FALSE	TRUE
e16	2015	08	06	09	36	f	21	r	49.516487016	4	40	1.20546319499	0.81069769109	right	tactile	right	visual	target	voice	587.485327618	FALSE	FALSE	FALSE	TRUE	TRUE	0	FALSE	FALSE	TRUE
e16	2015	08	06	09	36	f	21	r	3.50477018999	4	41	4.23728737095	0.938483338064	right	tactile	right	tactile	target	voice	210.48542764	FALSE	FALSE	FALSE	FALSE	TRUE	0	FALSE	FALSE	TRUE
e16	2015	08	06	09	36	f	21	r	3.50477018999	4	42	0.606732518994	1.10335852468	left	tactile	right	visual	target	voice	289.607596002	FALSE	FALSE	FALSE	FALSE	TRUE	0	FALSE	FALSE	TRUE
e16	2015	08	06	09	36	f	21	r	3.50477018999	4	43	0.418659430929	1.12825607758	right	tactile	left	visual	target	voice	32.2509731632	FALSE	FALSE	FALSE	FALSE	TRUE	0	FALSE	TRUE	TRUE
e16	2015	08	06	09	36	f	21	r	3.50477018999	4	44	0.555643961998	0.910922044822	right	tactile	right	visual	target	voice	329.01081501	FALSE	FALSE	FALSE	FALSE	TRUE	0	FALSE	FALSE	TRUE
e16	2015	08	06	09	36	f	21	r	3.50477018999	4	45	0.407745230012	0.72427937962	right	tactile	left	tactile	target	voice	314.062862191	FALSE	FALSE	FALSE	FALSE	TRUE	0	FALSE	TRUE	TRUE
e16	2015	08	06	09	36	f	21	r	3.50477018999	4	46	0.406000351068	0.512310008324	left	visual	left	visual	target	voice	448.224316468	FALSE	FALSE	FALSE	FALSE	FALSE	0	FALSE	FALSE	TRUE
e16	2015	08	06	09	36	f	21	r	3.50477018999	4	47	1.11828904704	1.36210278199	left	tactile	left	tactile	target	voice	443.527989672	FALSE	FALSE	FALSE	FALSE	TRUE	0	FALSE	TRUE	TRUE
e16	2015	08	06	09	36	f	21	r	3.50477018999	4	48	0.401346507017	0.791863270844	right	visual	right	visual	target	voice	270.502020954	FALSE	FALSE	FALSE	FALSE	TRUE	0	FALSE	TRUE	TRUE
