id	year	month	day	hour	minute	sex	age	handedness	message_viewing_time	block	trial_num	trial_initiation_time	fixation_duration	cue_location	cue_modality	target_location	target_modality	target_type	target_response_key	target_response_rt	pre_target_response	feedback_response	recalibration	blink	saccade	biggest_small_saccade	critical_blink	critical_saccade	target_started_TF
e17	2015	08	06	18	08	f	20	r	355.529143289	practice	1	11.876443795	0.587483037549	right	visual	right	visual	catch	voice	NA	TRUE	FALSE	FALSE	FALSE	FALSE	0	FALSE	FALSE	FALSE
e17	2015	08	06	18	08	f	20	r	355.529143289	practice	2	14.5757311101	1.36738298739	right	visual	right	visual	target	NA	NA	FALSE	FALSE	FALSE	TRUE	TRUE	0	FALSE	TRUE	TRUE
e17	2015	08	06	18	08	f	20	r	355.529143289	practice	3	2.92855751491	1.4311435456	left	tactile	right	tactile	target	voice	837.47976413	FALSE	FALSE	FALSE	FALSE	FALSE	0	FALSE	FALSE	TRUE
e17	2015	08	06	18	08	f	20	r	355.529143289	practice	4	1.48562640499	1.33012632169	right	visual	left	tactile	target	NA	NA	FALSE	FALSE	FALSE	FALSE	TRUE	0	FALSE	TRUE	TRUE
e17	2015	08	06	18	08	f	20	r	355.529143289	practice	5	0.418014554074	1.45523869145	left	tactile	right	tactile	target	voice	NA	TRUE	FALSE	FALSE	TRUE	FALSE	0	FALSE	FALSE	FALSE
e17	2015	08	06	18	08	f	20	r	355.529143289	practice	6	1.05676436902	0.819283485404	left	visual	left	visual	target	voice	NA	TRUE	FALSE	FALSE	FALSE	FALSE	0	FALSE	FALSE	FALSE
e17	2015	08	06	18	08	f	20	r	355.529143289	practice	7	28.171317305	0.980893971738	left	tactile	right	visual	target	voice	NA	TRUE	FALSE	FALSE	FALSE	FALSE	0	FALSE	FALSE	FALSE
e17	2015	08	06	18	08	f	20	r	355.529143289	practice	8	39.739750838	0.736257415186	left	tactile	right	visual	target	NA	NA	FALSE	FALSE	FALSE	FALSE	TRUE	0	FALSE	FALSE	TRUE
e17	2015	08	06	18	08	f	20	r	355.529143289	practice	9	4.52365123201	0.561851468849	left	tactile	right	visual	target	voice	352.145385928	FALSE	FALSE	FALSE	FALSE	TRUE	0	FALSE	FALSE	TRUE
e17	2015	08	06	18	08	f	20	r	355.529143289	practice	10	5.79736976	1.27172691159	left	visual	right	tactile	target	voice	409.957700176	FALSE	FALSE	FALSE	FALSE	TRUE	0	FALSE	FALSE	TRUE
e17	2015	08	06	18	08	f	20	r	355.529143289	practice	11	1.79962503002	1.44932661145	right	visual	left	tactile	target	voice	305.860841181	FALSE	FALSE	FALSE	TRUE	TRUE	0	FALSE	FALSE	TRUE
e17	2015	08	06	18	08	f	20	r	355.529143289	practice	12	683.11370358	1.46969455748	right	tactile	right	tactile	target	NA	NA	FALSE	FALSE	FALSE	FALSE	TRUE	0	FALSE	FALSE	TRUE
e17	2015	08	06	18	08	f	20	r	355.529143289	practice	13	1.20140390599	0.963721472449	left	tactile	right	tactile	target	voice	443.854405312	FALSE	FALSE	FALSE	FALSE	FALSE	0	FALSE	FALSE	TRUE
e17	2015	08	06	18	08	f	20	r	355.529143289	practice	14	11.854459243	1.20995078576	left	tactile	right	tactile	target	voice	355.632498977	FALSE	FALSE	FALSE	FALSE	TRUE	0	FALSE	TRUE	TRUE
e17	2015	08	06	18	08	f	20	r	355.529143289	practice	15	3.23330209206	0.704734383342	left	tactile	left	visual	target	voice	545.628648368	FALSE	FALSE	FALSE	TRUE	TRUE	0	FALSE	FALSE	TRUE
e17	2015	08	06	18	08	f	20	r	355.529143289	practice	16	4.49734995503	0.709983305166	left	visual	right	tactile	catch	NA	NA	FALSE	FALSE	FALSE	TRUE	TRUE	0	FALSE	FALSE	TRUE
e17	2015	08	06	18	08	f	20	r	355.529143289	practice	17	1.13269720599	1.41695624541	right	visual	right	tactile	catch	NA	NA	FALSE	FALSE	FALSE	TRUE	TRUE	0	FALSE	TRUE	TRUE
e17	2015	08	06	18	08	f	20	r	355.529143289	practice	18	0.71855098207	1.36764174003	left	tactile	right	tactile	target	voice	449.549628771	FALSE	FALSE	FALSE	TRUE	TRUE	0	FALSE	FALSE	TRUE
e17	2015	08	06	18	08	f	20	r	355.529143289	practice	19	0.727842569002	1.2370857863	right	visual	right	visual	target	voice	551.255709492	FALSE	FALSE	FALSE	TRUE	TRUE	0	FALSE	FALSE	TRUE
e17	2015	08	06	18	08	f	20	r	355.529143289	practice	20	0.679320820956	0.509273788224	left	tactile	left	visual	target	voice	625.012415578	FALSE	FALSE	FALSE	TRUE	TRUE	0	FALSE	FALSE	TRUE
e17	2015	08	06	18	08	f	20	r	355.529143289	practice	21	3.67045622796	0.888052456809	left	visual	right	tactile	target	voice	424.430883024	FALSE	FALSE	FALSE	FALSE	TRUE	0	FALSE	FALSE	TRUE
e17	2015	08	06	18	08	f	20	r	355.529143289	practice	22	2.39882129198	0.84720280604	right	visual	right	visual	target	voice	526.976935682	FALSE	FALSE	FALSE	TRUE	TRUE	0	FALSE	FALSE	TRUE
e17	2015	08	06	18	08	f	20	r	355.529143289	practice	23	0.806817453005	1.27212863055	left	visual	left	tactile	target	voice	532.343679224	FALSE	FALSE	FALSE	TRUE	TRUE	0	FALSE	FALSE	TRUE
e17	2015	08	06	18	08	f	20	r	355.529143289	practice	24	0.684436694952	1.41531941583	right	visual	right	tactile	target	voice	398.109875852	FALSE	FALSE	FALSE	TRUE	TRUE	0	FALSE	FALSE	TRUE
e17	2015	08	06	18	08	f	20	r	355.529143289	practice	25	0.645616447087	0.539909346027	left	tactile	left	visual	target	voice	515.2903907	FALSE	FALSE	FALSE	FALSE	FALSE	0	FALSE	FALSE	TRUE
e17	2015	08	06	18	08	f	20	r	355.529143289	practice	26	0.514913834981	0.523153750376	left	visual	left	visual	target	voice	422.037164331	FALSE	FALSE	FALSE	FALSE	TRUE	0	FALSE	TRUE	TRUE
e17	2015	08	06	18	08	f	20	r	355.529143289	practice	27	0.595146928099	1.41581806983	left	visual	right	visual	target	voice	NA	TRUE	FALSE	FALSE	FALSE	FALSE	0	FALSE	FALSE	FALSE
e17	2015	08	06	18	08	f	20	r	355.529143289	practice	28	4.13338101795	0.670067434639	right	visual	right	tactile	target	voice	411.196587142	FALSE	FALSE	FALSE	FALSE	FALSE	0	FALSE	FALSE	TRUE
e17	2015	08	06	18	08	f	20	r	355.529143289	practice	29	0.904413234093	0.745121430995	left	visual	right	visual	target	voice	521.821600851	FALSE	FALSE	FALSE	TRUE	TRUE	0	FALSE	FALSE	TRUE
e17	2015	08	06	18	08	f	20	r	355.529143289	practice	30	0.665150912013	1.31871163284	left	visual	right	visual	target	voice	405.078611802	FALSE	FALSE	FALSE	FALSE	TRUE	0	FALSE	FALSE	TRUE
e17	2015	08	06	18	08	f	20	r	355.529143289	practice	31	3.31834830705	1.2626778119	left	tactile	left	visual	catch	NA	NA	FALSE	FALSE	FALSE	TRUE	TRUE	0	TRUE	TRUE	TRUE
e17	2015	08	06	18	08	f	20	r	355.529143289	practice	32	2.09516782698	1.40085083972	left	visual	right	tactile	target	voice	NA	TRUE	FALSE	FALSE	FALSE	FALSE	0	FALSE	FALSE	FALSE
e17	2015	08	06	18	08	f	20	r	355.529143289	practice	33	1.0001865559	1.06532506255	left	tactile	right	tactile	target	voice	646.178282099	FALSE	FALSE	FALSE	FALSE	TRUE	0	FALSE	TRUE	TRUE
e17	2015	08	06	18	08	f	20	r	355.529143289	practice	34	10.568778264	0.578074730021	left	visual	right	visual	target	voice	512.892570696	FALSE	FALSE	FALSE	FALSE	FALSE	0	FALSE	FALSE	TRUE
e17	2015	08	06	18	08	f	20	r	355.529143289	practice	35	0.72753257805	1.15070123005	left	tactile	right	visual	catch	NA	NA	FALSE	FALSE	FALSE	TRUE	TRUE	0	FALSE	FALSE	TRUE
e17	2015	08	06	18	08	f	20	r	355.529143289	practice	36	0.42419377598	0.962712130164	left	visual	right	tactile	target	voice	NA	TRUE	FALSE	FALSE	TRUE	FALSE	0	FALSE	FALSE	FALSE
e17	2015	08	06	18	08	f	20	r	355.529143289	practice	37	2.07055248308	0.648073352257	right	tactile	left	tactile	target	voice	409.24358042	FALSE	FALSE	FALSE	FALSE	FALSE	0	FALSE	FALSE	TRUE
e17	2015	08	06	18	08	f	20	r	355.529143289	practice	38	0.711260403972	1.21178196625	right	visual	left	tactile	target	voice	357.729602489	FALSE	FALSE	FALSE	TRUE	TRUE	0	FALSE	FALSE	TRUE
e17	2015	08	06	18	08	f	20	r	355.529143289	practice	39	0.692399199004	1.10639037036	left	tactile	left	tactile	target	voice	574.623114313	FALSE	FALSE	FALSE	FALSE	TRUE	0	FALSE	FALSE	TRUE
e17	2015	08	06	18	08	f	20	r	355.529143289	practice	40	0.661271731951	0.99726691776	right	visual	right	tactile	target	voice	425.863131997	FALSE	FALSE	FALSE	TRUE	TRUE	0	FALSE	FALSE	TRUE
e17	2015	08	06	18	08	f	20	r	85.436118913	1	1	0.929012654931	0.873367951818	right	visual	left	visual	target	voice	491.650530952	FALSE	FALSE	FALSE	TRUE	TRUE	0	TRUE	TRUE	TRUE
e17	2015	08	06	18	08	f	20	r	85.436118913	1	2	20.2569597641	1.22602803279	right	tactile	left	tactile	catch	voice	NA	TRUE	FALSE	FALSE	FALSE	FALSE	0	FALSE	FALSE	FALSE
e17	2015	08	06	18	08	f	20	r	85.436118913	1	3	13.012289468	1.4658787999	right	tactile	right	visual	target	voice	406.275071786	FALSE	FALSE	FALSE	FALSE	TRUE	0	FALSE	FALSE	TRUE
e17	2015	08	06	18	08	f	20	r	85.436118913	1	4	1.01588252897	0.962052170561	left	visual	right	visual	target	voice	NA	TRUE	FALSE	FALSE	FALSE	TRUE	0	FALSE	FALSE	FALSE
e17	2015	08	06	18	08	f	20	r	85.436118913	1	5	16.3963132651	0.643174975764	left	visual	right	tactile	target	voice	410.579885938	FALSE	FALSE	FALSE	TRUE	TRUE	0	TRUE	TRUE	TRUE
e17	2015	08	06	18	08	f	20	r	85.436118913	1	6	0.675579303061	1.21072968166	right	visual	right	tactile	target	voice	432.606100105	FALSE	FALSE	FALSE	TRUE	FALSE	0	TRUE	FALSE	TRUE
e17	2015	08	06	18	08	f	20	r	85.436118913	1	7	9.4169651831	0.733177416926	left	tactile	right	tactile	target	voice	424.893357791	FALSE	FALSE	FALSE	TRUE	FALSE	0	TRUE	FALSE	TRUE
e17	2015	08	06	18	08	f	20	r	85.436118913	1	8	4.89816139394	1.0688886686	left	visual	left	visual	target	voice	487.939742161	FALSE	FALSE	FALSE	FALSE	FALSE	0	FALSE	FALSE	TRUE
e17	2015	08	06	18	08	f	20	r	85.436118913	1	9	12.5954361761	1.3334575731	left	visual	right	tactile	target	voice	322.935794597	FALSE	FALSE	FALSE	FALSE	FALSE	0	FALSE	FALSE	TRUE
e17	2015	08	06	18	08	f	20	r	85.436118913	1	10	0.71098062594	0.704826419402	right	visual	left	visual	target	voice	699.964164407	FALSE	FALSE	FALSE	FALSE	TRUE	0	FALSE	FALSE	TRUE
e17	2015	08	06	18	08	f	20	r	85.436118913	1	11	12.023866086	1.24421976743	left	tactile	left	tactile	target	voice	706.867427332	FALSE	FALSE	FALSE	FALSE	FALSE	0	FALSE	FALSE	TRUE
e17	2015	08	06	18	08	f	20	r	85.436118913	1	12	6.75624340097	0.564300137838	left	visual	right	visual	target	voice	NA	TRUE	FALSE	FALSE	FALSE	TRUE	0	FALSE	FALSE	FALSE
e17	2015	08	06	18	08	f	20	r	85.436118913	1	13	2.824350924	0.556853761411	right	visual	right	visual	target	voice	588.582294295	FALSE	FALSE	FALSE	FALSE	FALSE	0	FALSE	FALSE	TRUE
e17	2015	08	06	18	08	f	20	r	85.436118913	1	14	0.662167335977	0.803662274987	right	visual	right	tactile	target	voice	501.50588376	FALSE	FALSE	FALSE	FALSE	FALSE	0	FALSE	FALSE	TRUE
e17	2015	08	06	18	08	f	20	r	85.436118913	1	15	0.640267506009	0.987565838652	left	visual	right	tactile	target	voice	380.545637105	FALSE	FALSE	FALSE	FALSE	FALSE	0	FALSE	FALSE	TRUE
e17	2015	08	06	18	08	f	20	r	85.436118913	1	16	0.571602659998	0.851647161768	right	tactile	left	tactile	target	voice	349.586036988	FALSE	FALSE	FALSE	TRUE	TRUE	0	FALSE	FALSE	TRUE
e17	2015	08	06	18	08	f	20	r	85.436118913	1	17	0.552147362032	0.692454711536	left	tactile	left	visual	target	voice	553.271917277	FALSE	FALSE	FALSE	FALSE	TRUE	0	FALSE	FALSE	TRUE
e17	2015	08	06	18	08	f	20	r	85.436118913	1	18	0.535013849032	0.962607042623	left	tactile	right	tactile	target	voice	392.942194128	FALSE	FALSE	FALSE	TRUE	TRUE	0	FALSE	FALSE	TRUE
e17	2015	08	06	18	08	f	20	r	85.436118913	1	19	0.449800422997	0.628271599303	left	visual	left	visual	target	voice	547.973929439	FALSE	FALSE	FALSE	FALSE	TRUE	0	FALSE	FALSE	TRUE
e17	2015	08	06	18	08	f	20	r	85.436118913	1	20	16.796144118	0.778662929596	left	visual	left	visual	target	voice	NA	TRUE	FALSE	FALSE	FALSE	FALSE	0	FALSE	FALSE	FALSE
e17	2015	08	06	18	08	f	20	r	85.436118913	1	21	3.02182880102	0.987461480989	left	visual	right	visual	target	voice	508.070065756	FALSE	FALSE	FALSE	FALSE	TRUE	0	FALSE	TRUE	TRUE
e17	2015	08	06	18	08	f	20	r	85.436118913	1	22	5.75555618701	0.657519942861	left	tactile	right	visual	target	voice	460.395873873	FALSE	FALSE	FALSE	FALSE	FALSE	0	FALSE	FALSE	TRUE
e17	2015	08	06	18	08	f	20	r	85.436118913	1	23	7.726091975	1.36575578181	right	visual	left	tactile	target	voice	290.893322905	FALSE	FALSE	FALSE	FALSE	FALSE	0	FALSE	FALSE	TRUE
e17	2015	08	06	18	08	f	20	r	85.436118913	1	24	8.93621544796	1.31691682941	right	tactile	left	tactile	target	voice	298.555798247	FALSE	FALSE	FALSE	FALSE	FALSE	0	FALSE	FALSE	TRUE
e17	2015	08	06	18	08	f	20	r	85.436118913	1	25	1.68005540792	0.625778447764	left	tactile	right	tactile	target	voice	323.707798962	FALSE	FALSE	FALSE	FALSE	TRUE	0	FALSE	FALSE	TRUE
e17	2015	08	06	18	08	f	20	r	85.436118913	1	26	16.8905927781	1.4868257787	right	visual	right	tactile	target	voice	NA	TRUE	FALSE	FALSE	FALSE	TRUE	0	FALSE	TRUE	FALSE
e17	2015	08	06	18	08	f	20	r	85.436118913	1	27	0.91925936297	1.30185450764	right	visual	left	visual	target	voice	521.338205086	FALSE	FALSE	FALSE	FALSE	TRUE	0	FALSE	TRUE	TRUE
e17	2015	08	06	18	08	f	20	r	85.436118913	1	28	4.86285183008	0.874468816508	left	tactile	left	visual	catch	voice	NA	TRUE	FALSE	FALSE	FALSE	FALSE	0	FALSE	FALSE	FALSE
e17	2015	08	06	18	08	f	20	r	85.436118913	1	29	0.775929506053	0.753573977668	right	tactile	right	visual	target	voice	466.455384041	FALSE	FALSE	FALSE	FALSE	TRUE	0	FALSE	TRUE	TRUE
e17	2015	08	06	18	08	f	20	r	85.436118913	1	30	0.54114916001	0.935860508975	left	visual	left	tactile	catch	NA	NA	FALSE	FALSE	FALSE	FALSE	TRUE	0	FALSE	FALSE	TRUE
e17	2015	08	06	18	08	f	20	r	85.436118913	1	31	0.705818595947	1.16830264586	left	tactile	right	visual	target	voice	558.822214836	FALSE	FALSE	FALSE	FALSE	TRUE	0	FALSE	FALSE	TRUE
e17	2015	08	06	18	08	f	20	r	85.436118913	1	32	6.42033114401	0.750747829359	left	tactile	right	tactile	target	voice	NA	TRUE	FALSE	FALSE	FALSE	FALSE	0	FALSE	FALSE	FALSE
e17	2015	08	06	18	08	f	20	r	85.436118913	1	33	1.08762333193	0.897758961341	left	tactile	right	visual	target	voice	NA	TRUE	FALSE	FALSE	FALSE	FALSE	0	FALSE	FALSE	FALSE
e17	2015	08	06	18	08	f	20	r	85.436118913	1	34	1.89855098398	0.864205094421	left	tactile	left	tactile	target	voice	614.465250284	FALSE	FALSE	FALSE	FALSE	FALSE	0	FALSE	FALSE	TRUE
e17	2015	08	06	18	08	f	20	r	85.436118913	1	35	1.8937728079	0.558505159147	right	tactile	right	tactile	target	voice	593.404275598	FALSE	FALSE	FALSE	FALSE	TRUE	0	FALSE	FALSE	TRUE
e17	2015	08	06	18	08	f	20	r	85.436118913	1	36	7.60394375096	0.779956193778	right	tactile	left	tactile	target	voice	421.397654922	FALSE	FALSE	FALSE	FALSE	FALSE	0	FALSE	FALSE	TRUE
e17	2015	08	06	18	08	f	20	r	85.436118913	1	37	2.15391591808	0.528647109734	left	visual	right	tactile	target	voice	NA	TRUE	FALSE	FALSE	FALSE	FALSE	0	FALSE	FALSE	FALSE
e17	2015	08	06	18	08	f	20	r	85.436118913	1	38	1.29069663491	1.06893875357	left	visual	left	tactile	target	voice	448.719090084	FALSE	FALSE	FALSE	FALSE	FALSE	0	FALSE	FALSE	TRUE
e17	2015	08	06	18	08	f	20	r	85.436118913	1	39	4.11424433603	0.777404760036	right	tactile	left	visual	catch	voice	NA	TRUE	FALSE	FALSE	FALSE	FALSE	0	FALSE	FALSE	FALSE
e17	2015	08	06	18	08	f	20	r	85.436118913	1	40	0.955967877991	0.659659619837	left	visual	left	tactile	target	voice	693.52794101	FALSE	FALSE	FALSE	FALSE	TRUE	0	FALSE	FALSE	TRUE
e17	2015	08	06	18	08	f	20	r	72.442477277	1	41	6.90556270594	1.32544719313	right	tactile	right	visual	target	voice	NA	TRUE	FALSE	FALSE	FALSE	FALSE	0	FALSE	FALSE	FALSE
e17	2015	08	06	18	08	f	20	r	72.442477277	1	42	0.633996556047	1.26804964355	right	tactile	left	visual	target	voice	475.190784084	FALSE	FALSE	FALSE	FALSE	TRUE	0	FALSE	FALSE	TRUE
e17	2015	08	06	18	08	f	20	r	72.442477277	1	43	0.483955477015	0.775234273062	left	tactile	right	visual	target	voice	513.520392589	FALSE	FALSE	FALSE	FALSE	TRUE	0	FALSE	FALSE	TRUE
e17	2015	08	06	18	08	f	20	r	72.442477277	1	44	0.426890196046	1.02347270038	left	visual	left	tactile	target	voice	324.039496365	FALSE	FALSE	FALSE	FALSE	TRUE	0	FALSE	FALSE	TRUE
e17	2015	08	06	18	08	f	20	r	72.442477277	1	45	0.40205230494	1.43941002031	right	visual	right	visual	catch	NA	NA	FALSE	FALSE	FALSE	FALSE	FALSE	0	FALSE	FALSE	TRUE
e17	2015	08	06	18	08	f	20	r	72.442477277	1	46	3.0888590879	1.06033485687	right	tactile	left	visual	target	voice	323.371668812	FALSE	FALSE	FALSE	FALSE	FALSE	0	FALSE	FALSE	TRUE
e17	2015	08	06	18	08	f	20	r	72.442477277	1	47	1.06908529589	0.711958516448	right	visual	left	tactile	target	voice	900.594728184	FALSE	FALSE	FALSE	FALSE	TRUE	0	FALSE	FALSE	TRUE
e17	2015	08	06	18	08	f	20	r	72.442477277	1	48	0.398110665032	0.70497142946	right	tactile	right	visual	catch	NA	NA	FALSE	FALSE	FALSE	FALSE	TRUE	0	FALSE	FALSE	TRUE
e17	2015	08	06	18	08	f	20	r	72.442477277	1	49	5.04656121694	1.33089836584	left	tactile	left	tactile	target	voice	NA	TRUE	FALSE	FALSE	FALSE	TRUE	0	FALSE	FALSE	FALSE
e17	2015	08	06	18	08	f	20	r	72.442477277	1	50	0.862669375027	1.14170932197	right	tactile	left	tactile	target	voice	NA	TRUE	FALSE	FALSE	FALSE	FALSE	0	FALSE	FALSE	FALSE
e17	2015	08	06	18	08	f	20	r	72.442477277	1	51	1.36198815599	1.22632140478	left	visual	left	tactile	target	voice	151.475324994	FALSE	FALSE	FALSE	FALSE	FALSE	0	FALSE	FALSE	TRUE
e17	2015	08	06	18	08	f	20	r	72.442477277	1	52	0.497740520979	1.46679685812	left	visual	right	tactile	target	voice	NA	TRUE	FALSE	FALSE	FALSE	TRUE	0	FALSE	FALSE	FALSE
e17	2015	08	06	18	08	f	20	r	72.442477277	1	53	1.23173870705	1.35065856652	left	tactile	right	tactile	catch	NA	NA	FALSE	FALSE	FALSE	FALSE	TRUE	0	FALSE	FALSE	TRUE
e17	2015	08	06	18	08	f	20	r	72.442477277	1	54	0.397365899989	1.43444298741	right	visual	left	tactile	target	voice	603.34294429	FALSE	FALSE	FALSE	FALSE	FALSE	0	FALSE	FALSE	TRUE
e17	2015	08	06	18	08	f	20	r	72.442477277	1	55	0.401158055989	1.07217361999	left	visual	right	tactile	catch	NA	NA	FALSE	FALSE	FALSE	FALSE	TRUE	0	FALSE	FALSE	TRUE
e17	2015	08	06	18	08	f	20	r	72.442477277	1	56	6.68344339996	0.79403034034	right	visual	right	visual	target	voice	462.628219277	FALSE	FALSE	FALSE	FALSE	FALSE	0	FALSE	FALSE	TRUE
e17	2015	08	06	18	08	f	20	r	72.442477277	1	57	0.64575659798	0.618484284929	right	tactile	right	tactile	target	voice	687.418088783	FALSE	FALSE	FALSE	FALSE	TRUE	0	FALSE	FALSE	TRUE
e17	2015	08	06	18	08	f	20	r	72.442477277	1	58	0.756351733929	0.576931742016	left	visual	right	visual	target	voice	309.053075733	FALSE	FALSE	FALSE	FALSE	TRUE	0	FALSE	FALSE	TRUE
e17	2015	08	06	18	08	f	20	r	72.442477277	1	59	0.733335692901	0.692902329421	left	tactile	left	tactile	target	voice	445.846427348	FALSE	FALSE	FALSE	FALSE	FALSE	0	FALSE	FALSE	TRUE
e17	2015	08	06	18	08	f	20	r	72.442477277	1	60	0.554216750083	1.44158839041	left	visual	left	tactile	target	voice	NA	TRUE	FALSE	FALSE	FALSE	TRUE	0	FALSE	FALSE	FALSE
e17	2015	08	06	18	08	f	20	r	72.442477277	1	61	0.663378668949	1.37515355971	right	visual	left	visual	target	voice	NA	TRUE	FALSE	FALSE	FALSE	TRUE	0	FALSE	FALSE	FALSE
e17	2015	08	06	18	08	f	20	r	72.442477277	1	62	1.37487412	1.17252256692	left	visual	right	visual	target	voice	323.51414091	FALSE	FALSE	FALSE	FALSE	FALSE	0	FALSE	FALSE	TRUE
e17	2015	08	06	18	08	f	20	r	72.442477277	1	63	0.817962261033	0.735400927119	left	tactile	right	visual	target	voice	428.218569607	FALSE	FALSE	FALSE	FALSE	FALSE	0	FALSE	FALSE	TRUE
e17	2015	08	06	18	08	f	20	r	72.442477277	1	64	0.448266359977	0.635678853467	left	visual	left	visual	target	voice	624.069502228	FALSE	FALSE	FALSE	FALSE	TRUE	0	FALSE	FALSE	TRUE
e17	2015	08	06	18	08	f	20	r	72.442477277	1	65	0.434733554954	0.971033820891	right	tactile	left	tactile	target	voice	595.74621683	FALSE	FALSE	FALSE	FALSE	TRUE	0	FALSE	TRUE	TRUE
e17	2015	08	06	18	08	f	20	r	72.442477277	1	66	4.066562969	1.08881755016	right	tactile	right	tactile	catch	voice	NA	TRUE	FALSE	FALSE	FALSE	FALSE	0	FALSE	FALSE	FALSE
e17	2015	08	06	18	08	f	20	r	72.442477277	1	67	0.958003473934	0.501115797843	left	visual	left	visual	target	voice	910.804733867	FALSE	FALSE	FALSE	FALSE	TRUE	0	FALSE	TRUE	TRUE
e17	2015	08	06	18	08	f	20	r	72.442477277	1	68	0.400918773026	1.00141332619	right	visual	right	tactile	target	voice	408.233373659	FALSE	FALSE	FALSE	FALSE	TRUE	0	FALSE	FALSE	TRUE
e17	2015	08	06	18	08	f	20	r	72.442477277	1	69	0.758837109897	0.98907728445	left	tactile	right	tactile	target	voice	487.527807243	FALSE	FALSE	FALSE	FALSE	FALSE	0	FALSE	FALSE	TRUE
e17	2015	08	06	18	08	f	20	r	72.442477277	1	70	0.430784284021	0.960895320293	left	tactile	left	visual	target	NA	NA	FALSE	FALSE	FALSE	FALSE	TRUE	0	FALSE	TRUE	TRUE
e17	2015	08	06	18	08	f	20	r	72.442477277	1	71	0.731514305924	0.912005098206	right	visual	right	tactile	catch	NA	NA	FALSE	FALSE	FALSE	FALSE	TRUE	0	FALSE	FALSE	TRUE
e17	2015	08	06	18	08	f	20	r	72.442477277	1	72	4.96708822006	0.831116825425	right	tactile	right	tactile	target	voice	NA	TRUE	FALSE	FALSE	FALSE	FALSE	0	FALSE	FALSE	FALSE
e17	2015	08	06	18	08	f	20	r	72.442477277	1	73	0.81561666599	1.39917558971	right	visual	right	tactile	target	NA	NA	FALSE	FALSE	FALSE	FALSE	FALSE	0	FALSE	FALSE	TRUE
e17	2015	08	06	18	08	f	20	r	72.442477277	1	74	0.563136704033	1.00983354232	left	tactile	left	tactile	target	voice	487.040825537	FALSE	FALSE	FALSE	FALSE	TRUE	0	FALSE	FALSE	TRUE
e17	2015	08	06	18	08	f	20	r	72.442477277	1	75	5.75463201699	1.00389710081	left	visual	left	tactile	target	voice	283.722199965	FALSE	FALSE	FALSE	FALSE	FALSE	0	FALSE	FALSE	TRUE
e17	2015	08	06	18	08	f	20	r	72.442477277	1	76	0.406847718987	0.672579693977	left	tactile	left	visual	target	voice	573.486493784	FALSE	FALSE	FALSE	FALSE	TRUE	0	FALSE	FALSE	TRUE
e17	2015	08	06	18	08	f	20	r	72.442477277	1	77	14.9038921059	1.15389645826	right	visual	left	tactile	target	voice	251.487907488	FALSE	FALSE	FALSE	FALSE	FALSE	0	FALSE	FALSE	TRUE
e17	2015	08	06	18	08	f	20	r	72.442477277	1	78	6.69335226808	1.44692847729	left	visual	right	tactile	target	voice	52.8438905021	FALSE	FALSE	FALSE	FALSE	TRUE	0	FALSE	TRUE	TRUE
e17	2015	08	06	18	08	f	20	r	72.442477277	1	79	0.835691638989	1.48415550048	right	visual	right	tactile	target	voice	607.039508293	FALSE	FALSE	FALSE	FALSE	TRUE	0	FALSE	FALSE	TRUE
e17	2015	08	06	18	08	f	20	r	72.442477277	1	80	0.43125618191	0.979862746622	right	tactile	right	tactile	target	voice	344.378982089	FALSE	FALSE	FALSE	FALSE	TRUE	0	FALSE	FALSE	TRUE
e17	2015	08	06	18	08	f	20	r	3.22256588307	1	81	0.749843572965	0.535048169488	right	visual	right	tactile	target	voice	280.360586243	FALSE	FALSE	FALSE	FALSE	FALSE	0	FALSE	FALSE	TRUE
e17	2015	08	06	18	08	f	20	r	3.22256588307	1	82	0.399280971033	0.96755668829	left	tactile	left	visual	target	voice	NA	TRUE	FALSE	FALSE	FALSE	TRUE	0	FALSE	FALSE	FALSE
e17	2015	08	06	18	08	f	20	r	3.22256588307	1	83	0.649258963065	1.33766184009	left	tactile	right	visual	target	voice	NA	TRUE	FALSE	FALSE	FALSE	TRUE	0	FALSE	FALSE	FALSE
e17	2015	08	06	18	08	f	20	r	3.22256588307	1	84	0.415429844987	1.24688959612	right	visual	left	visual	catch	NA	NA	FALSE	FALSE	FALSE	TRUE	TRUE	0	FALSE	FALSE	TRUE
e17	2015	08	06	18	08	f	20	r	3.22256588307	1	85	0.958380443044	0.835210867927	left	tactile	left	visual	target	voice	373.585206806	FALSE	FALSE	FALSE	FALSE	TRUE	0	FALSE	FALSE	TRUE
e17	2015	08	06	18	08	f	20	r	3.22256588307	1	86	6.95370980108	0.730097460023	left	tactile	left	tactile	target	voice	291.792717762	FALSE	FALSE	FALSE	FALSE	FALSE	0	FALSE	FALSE	TRUE
e17	2015	08	06	18	08	f	20	r	3.22256588307	1	87	0.436202407	0.712240570723	right	tactile	left	tactile	target	voice	465.237808065	FALSE	FALSE	FALSE	FALSE	TRUE	0	FALSE	FALSE	TRUE
e17	2015	08	06	18	08	f	20	r	3.22256588307	1	88	0.408822241938	1.37228291682	left	visual	right	visual	target	voice	246.53672392	FALSE	FALSE	FALSE	FALSE	TRUE	0	FALSE	FALSE	TRUE
e17	2015	08	06	18	08	f	20	r	3.22256588307	1	89	11.084018516	0.723245647353	left	visual	right	tactile	target	voice	192.076111445	FALSE	FALSE	FALSE	FALSE	FALSE	0	FALSE	FALSE	TRUE
e17	2015	08	06	18	08	f	20	r	3.22256588307	1	90	0.760597147979	1.20157542178	right	visual	right	visual	target	voice	388.799438952	FALSE	FALSE	FALSE	FALSE	TRUE	0	FALSE	FALSE	TRUE
e17	2015	08	06	18	08	f	20	r	3.22256588307	1	91	0.413369536051	1.43920346459	right	tactile	left	visual	target	voice	294.909355114	FALSE	FALSE	FALSE	FALSE	TRUE	0	FALSE	FALSE	TRUE
e17	2015	08	06	18	08	f	20	r	3.22256588307	1	92	4.57231432409	0.790296403693	right	visual	right	visual	target	voice	NA	TRUE	FALSE	FALSE	FALSE	FALSE	0	FALSE	FALSE	FALSE
e17	2015	08	06	18	08	f	20	r	3.22256588307	1	93	6.64774501103	0.718527684998	right	visual	right	visual	target	voice	473.686778685	FALSE	FALSE	FALSE	FALSE	FALSE	0	FALSE	FALSE	TRUE
e17	2015	08	06	18	08	f	20	r	3.22256588307	1	94	0.73735626298	1.37809883665	left	tactile	left	tactile	target	voice	608.626389178	FALSE	FALSE	FALSE	FALSE	TRUE	0	FALSE	FALSE	TRUE
e17	2015	08	06	18	08	f	20	r	3.22256588307	1	95	0.558057995979	0.652044473597	right	visual	right	visual	target	voice	445.765015087	FALSE	FALSE	FALSE	FALSE	TRUE	0	FALSE	FALSE	TRUE
e17	2015	08	06	18	08	f	20	r	3.22256588307	1	96	0.511684530065	0.990020687413	left	visual	right	visual	target	voice	NA	TRUE	FALSE	FALSE	FALSE	TRUE	0	FALSE	FALSE	FALSE
e17	2015	08	06	18	08	f	20	r	3.22256588307	1	97	0.580561103998	0.93764649702	right	tactile	right	visual	target	voice	528.784836642	FALSE	FALSE	FALSE	FALSE	TRUE	0	FALSE	FALSE	TRUE
e17	2015	08	06	18	08	f	20	r	3.22256588307	1	98	0.536885014968	0.692966144011	left	tactile	left	tactile	catch	NA	NA	FALSE	FALSE	FALSE	FALSE	TRUE	0	FALSE	FALSE	TRUE
e17	2015	08	06	18	08	f	20	r	3.22256588307	1	99	6.93719405204	0.653901215309	left	tactile	right	visual	catch	voice	NA	TRUE	FALSE	FALSE	FALSE	FALSE	0	FALSE	FALSE	FALSE
e17	2015	08	06	18	08	f	20	r	3.22256588307	1	100	0.538088215049	1.07812375054	right	visual	right	tactile	target	voice	NA	TRUE	FALSE	FALSE	FALSE	FALSE	0	FALSE	FALSE	FALSE
e17	2015	08	06	18	08	f	20	r	3.22256588307	1	101	1.05008476495	0.912912403544	right	visual	left	visual	target	voice	411.421857076	FALSE	FALSE	FALSE	FALSE	FALSE	0	FALSE	FALSE	TRUE
e17	2015	08	06	18	08	f	20	r	3.22256588307	1	102	4.68823697302	0.598074361073	right	visual	right	visual	target	voice	452.832115581	FALSE	FALSE	FALSE	FALSE	FALSE	0	FALSE	FALSE	TRUE
e17	2015	08	06	18	08	f	20	r	3.22256588307	1	103	0.673802864039	1.00699851248	right	visual	left	visual	target	voice	304.685021285	FALSE	FALSE	FALSE	FALSE	TRUE	0	FALSE	FALSE	TRUE
e17	2015	08	06	18	08	f	20	r	3.22256588307	1	104	0.498805065057	1.13328102181	left	tactile	left	tactile	target	voice	222.397071891	FALSE	FALSE	FALSE	FALSE	TRUE	0	FALSE	FALSE	TRUE
e17	2015	08	06	18	08	f	20	r	3.22256588307	1	105	0.689238829073	0.985645395693	right	visual	left	tactile	target	voice	NA	TRUE	FALSE	FALSE	FALSE	FALSE	0	FALSE	FALSE	FALSE
e17	2015	08	06	18	08	f	20	r	3.22256588307	1	106	0.582623617956	0.808054363135	left	visual	right	tactile	target	voice	298.847797676	FALSE	FALSE	FALSE	FALSE	TRUE	0	FALSE	FALSE	TRUE
e17	2015	08	06	18	08	f	20	r	3.22256588307	1	107	0.726975132944	0.932025880944	left	visual	right	visual	catch	NA	NA	FALSE	FALSE	FALSE	FALSE	FALSE	0	FALSE	FALSE	TRUE
e17	2015	08	06	18	08	f	20	r	3.22256588307	1	108	5.27791677299	0.680307141866	right	visual	left	tactile	catch	NA	NA	FALSE	FALSE	FALSE	FALSE	FALSE	0	FALSE	FALSE	TRUE
e17	2015	08	06	18	08	f	20	r	3.22256588307	1	109	0.493209700915	0.725122619036	right	visual	right	visual	target	voice	836.6109177	FALSE	FALSE	FALSE	FALSE	TRUE	0	FALSE	TRUE	TRUE
e17	2015	08	06	18	08	f	20	r	3.22256588307	1	110	0.639916153043	1.31190991629	right	tactile	right	tactile	target	voice	394.894721452	FALSE	FALSE	FALSE	FALSE	TRUE	0	FALSE	FALSE	TRUE
e17	2015	08	06	18	08	f	20	r	3.22256588307	1	111	5.95896185702	1.45391280529	left	visual	left	tactile	target	voice	NA	TRUE	FALSE	FALSE	FALSE	FALSE	0	FALSE	FALSE	FALSE
e17	2015	08	06	18	08	f	20	r	3.22256588307	1	112	0.499871271895	1.09954849862	left	tactile	left	visual	target	voice	573.796355049	FALSE	FALSE	FALSE	FALSE	TRUE	0	FALSE	TRUE	TRUE
e17	2015	08	06	18	08	f	20	r	3.22256588307	1	113	6.19076824898	0.994743039378	left	visual	left	visual	target	voice	NA	TRUE	FALSE	FALSE	FALSE	FALSE	0	FALSE	FALSE	FALSE
e17	2015	08	06	18	08	f	20	r	3.22256588307	1	114	0.55149607698	1.15683242061	right	visual	left	tactile	target	voice	NA	TRUE	FALSE	FALSE	FALSE	TRUE	0	FALSE	FALSE	FALSE
e17	2015	08	06	18	08	f	20	r	3.22256588307	1	115	0.757431844948	1.43536130668	left	visual	left	visual	target	voice	232.126045972	FALSE	FALSE	FALSE	TRUE	TRUE	0	FALSE	TRUE	TRUE
e17	2015	08	06	18	08	f	20	r	3.22256588307	1	116	0.595286177937	0.553942953614	left	tactile	right	tactile	target	voice	324.999212055	FALSE	FALSE	FALSE	FALSE	TRUE	0	FALSE	TRUE	TRUE
e17	2015	08	06	18	08	f	20	r	3.22256588307	1	117	0.516222862061	1.22722142466	left	tactile	right	visual	target	voice	NA	TRUE	FALSE	FALSE	FALSE	TRUE	0	FALSE	FALSE	FALSE
e17	2015	08	06	18	08	f	20	r	3.22256588307	1	118	3.97600952792	0.600756609708	left	visual	left	tactile	target	voice	61.4643770969	FALSE	FALSE	FALSE	FALSE	FALSE	0	FALSE	FALSE	TRUE
e17	2015	08	06	18	08	f	20	r	3.22256588307	1	119	9.47009217006	0.652149984391	right	visual	left	tactile	target	voice	NA	TRUE	FALSE	FALSE	FALSE	FALSE	0	FALSE	FALSE	FALSE
e17	2015	08	06	18	08	f	20	r	3.22256588307	1	120	0.585258165025	0.556403219383	right	tactile	left	tactile	target	voice	244.654454407	FALSE	FALSE	FALSE	FALSE	FALSE	0	FALSE	FALSE	TRUE
e17	2015	08	06	18	08	f	20	r	3.26905876398	1	121	6.03182305198	0.7433278893	left	visual	left	visual	catch	NA	NA	FALSE	FALSE	FALSE	FALSE	TRUE	0	FALSE	TRUE	TRUE
e17	2015	08	06	18	08	f	20	r	3.26905876398	1	122	5.79926263995	1.48854100016	right	tactile	right	visual	target	voice	NA	TRUE	FALSE	FALSE	FALSE	FALSE	0	FALSE	FALSE	FALSE
e17	2015	08	06	18	08	f	20	r	3.26905876398	1	123	0.400649511954	1.39428656598	right	tactile	right	visual	target	voice	NA	TRUE	FALSE	FALSE	FALSE	FALSE	0	FALSE	FALSE	FALSE
e17	2015	08	06	18	08	f	20	r	3.26905876398	1	124	5.04538955295	0.949839600914	right	tactile	right	visual	target	voice	283.828913816	FALSE	FALSE	FALSE	FALSE	FALSE	0	FALSE	FALSE	TRUE
e17	2015	08	06	18	08	f	20	r	3.26905876398	1	125	0.674672547029	1.01903968239	left	visual	right	visual	target	voice	NA	TRUE	FALSE	FALSE	FALSE	FALSE	0	FALSE	FALSE	FALSE
e17	2015	08	06	18	08	f	20	r	3.26905876398	1	126	6.79263305396	0.874122033418	right	visual	left	visual	target	voice	337.014736375	FALSE	FALSE	FALSE	FALSE	TRUE	0	FALSE	TRUE	TRUE
e17	2015	08	06	18	08	f	20	r	3.26905876398	1	127	3.41930306994	0.904326700559	right	visual	left	visual	target	voice	NA	TRUE	FALSE	FALSE	FALSE	FALSE	0	FALSE	FALSE	FALSE
e17	2015	08	06	18	08	f	20	r	3.26905876398	1	128	0.685241517029	0.615580044109	right	visual	right	tactile	target	voice	NA	TRUE	FALSE	FALSE	FALSE	TRUE	0	FALSE	FALSE	FALSE
e17	2015	08	06	18	08	f	20	r	3.26905876398	1	129	1.01550434902	1.37102201131	right	tactile	right	visual	target	voice	627.819478395	FALSE	FALSE	FALSE	FALSE	FALSE	0	FALSE	FALSE	TRUE
e17	2015	08	06	18	08	f	20	r	3.26905876398	1	130	1.62911215599	0.795316065908	right	visual	left	visual	target	voice	558.86481388	FALSE	FALSE	FALSE	FALSE	FALSE	0	FALSE	FALSE	TRUE
e17	2015	08	06	18	08	f	20	r	3.26905876398	1	131	1.53361866996	1.20700620946	left	visual	right	tactile	target	voice	81.8888752256	FALSE	FALSE	FALSE	FALSE	FALSE	0	FALSE	FALSE	TRUE
e17	2015	08	06	18	08	f	20	r	3.26905876398	1	132	8.05404250196	0.896039806167	right	tactile	left	visual	target	voice	466.862411471	FALSE	FALSE	FALSE	FALSE	FALSE	0	FALSE	FALSE	TRUE
e17	2015	08	06	18	08	f	20	r	3.26905876398	1	133	0.808043672005	1.47216768116	right	tactile	left	tactile	target	voice	NA	TRUE	FALSE	FALSE	FALSE	TRUE	0	FALSE	FALSE	FALSE
e17	2015	08	06	18	08	f	20	r	3.26905876398	1	134	2.86329625698	1.03372591838	right	tactile	left	visual	target	voice	385.782447294	FALSE	FALSE	FALSE	FALSE	FALSE	0	FALSE	FALSE	TRUE
e17	2015	08	06	18	08	f	20	r	3.26905876398	1	135	8.265977278	0.930510942067	right	visual	left	tactile	target	voice	307.078141719	FALSE	FALSE	FALSE	FALSE	FALSE	0	FALSE	FALSE	TRUE
e17	2015	08	06	18	08	f	20	r	3.26905876398	1	136	6.06358376401	0.970537261827	right	tactile	left	tactile	target	voice	NA	TRUE	FALSE	FALSE	FALSE	FALSE	0	FALSE	FALSE	FALSE
e17	2015	08	06	18	08	f	20	r	3.26905876398	1	137	14.1988904669	1.42971134689	left	tactile	left	visual	target	voice	NA	TRUE	FALSE	FALSE	FALSE	FALSE	0	FALSE	FALSE	FALSE
e17	2015	08	06	18	08	f	20	r	3.26905876398	1	138	168.700420138	0.8618531092	right	tactile	right	tactile	target	NA	NA	FALSE	FALSE	FALSE	FALSE	TRUE	0	FALSE	FALSE	TRUE
e17	2015	08	06	18	08	f	20	r	3.26905876398	1	139	0.926114692003	1.30817076034	right	tactile	right	tactile	target	voice	NA	TRUE	FALSE	FALSE	FALSE	TRUE	0	FALSE	FALSE	FALSE
e17	2015	08	06	18	08	f	20	r	3.26905876398	1	140	1.44841556496	0.920279586514	right	visual	right	visual	target	voice	471.342255129	FALSE	FALSE	FALSE	TRUE	TRUE	0	TRUE	TRUE	TRUE
e17	2015	08	06	18	08	f	20	r	3.26905876398	1	141	0.563244229998	1.43816127875	left	tactile	right	visual	target	voice	356.524309027	FALSE	FALSE	FALSE	TRUE	TRUE	0	TRUE	TRUE	TRUE
e17	2015	08	06	18	08	f	20	r	3.26905876398	1	142	7.94387277507	0.812367712498	left	tactile	right	tactile	target	voice	283.256169292	FALSE	FALSE	FALSE	FALSE	FALSE	0	FALSE	FALSE	TRUE
e17	2015	08	06	18	08	f	20	r	3.26905876398	1	143	0.913094468997	1.24590910034	left	visual	left	visual	target	voice	470.877735293	FALSE	FALSE	FALSE	FALSE	TRUE	0	FALSE	FALSE	TRUE
e17	2015	08	06	18	08	f	20	r	3.26905876398	1	144	0.576713872026	0.598844468287	left	visual	left	visual	target	voice	446.707592462	FALSE	FALSE	FALSE	TRUE	TRUE	0	FALSE	FALSE	TRUE
e17	2015	08	06	18	08	f	20	r	3.26905876398	1	145	0.615966717014	1.39498077623	right	tactile	right	tactile	target	voice	NA	TRUE	FALSE	FALSE	TRUE	TRUE	0	FALSE	FALSE	FALSE
e17	2015	08	06	18	08	f	20	r	3.26905876398	1	146	1.11341306497	1.3220629188	left	tactile	left	visual	target	voice	367.11740098	FALSE	FALSE	FALSE	FALSE	FALSE	0	FALSE	FALSE	TRUE
e17	2015	08	06	18	08	f	20	r	3.26905876398	1	147	0.594706552918	0.827446000637	right	tactile	right	visual	target	voice	496.825032984	FALSE	FALSE	FALSE	FALSE	FALSE	0	FALSE	FALSE	TRUE
e17	2015	08	06	18	08	f	20	r	3.26905876398	1	148	0.546404525987	1.33431091476	left	tactile	right	tactile	target	voice	NA	TRUE	FALSE	FALSE	FALSE	TRUE	0	FALSE	FALSE	FALSE
e17	2015	08	06	18	08	f	20	r	3.26905876398	1	149	6.12629216898	0.509494930825	right	tactile	right	tactile	target	voice	440.083798952	FALSE	FALSE	FALSE	FALSE	FALSE	0	FALSE	FALSE	TRUE
e17	2015	08	06	18	08	f	20	r	3.26905876398	1	150	0.796469699009	0.939585548353	right	tactile	left	visual	target	voice	475.518975407	FALSE	FALSE	FALSE	FALSE	FALSE	0	FALSE	FALSE	TRUE
e17	2015	08	06	18	08	f	20	r	3.26905876398	1	151	0.829390823026	0.541479404368	left	tactile	right	tactile	target	voice	397.852309397	FALSE	FALSE	FALSE	TRUE	TRUE	0	FALSE	FALSE	TRUE
e17	2015	08	06	18	08	f	20	r	3.26905876398	1	152	1.14023681299	0.705295191881	left	tactile	left	visual	target	voice	467.320948956	FALSE	FALSE	FALSE	FALSE	FALSE	0	FALSE	FALSE	TRUE
e17	2015	08	06	18	08	f	20	r	3.26905876398	1	153	0.912848191918	0.635573661775	left	tactile	left	tactile	target	voice	NA	TRUE	FALSE	FALSE	FALSE	FALSE	0	FALSE	FALSE	FALSE
e17	2015	08	06	18	08	f	20	r	3.26905876398	1	154	1.78457552497	1.28265847732	left	tactile	right	visual	target	voice	318.520870409	FALSE	FALSE	FALSE	FALSE	FALSE	0	FALSE	FALSE	TRUE
e17	2015	08	06	18	08	f	20	r	3.26905876398	1	155	0.586710858974	1.43401684722	left	visual	right	visual	target	voice	365.950487554	FALSE	FALSE	FALSE	TRUE	TRUE	0	FALSE	TRUE	TRUE
e17	2015	08	06	18	08	f	20	r	3.26905876398	1	156	0.650170546025	0.714794351229	left	visual	left	tactile	target	voice	822.441837518	FALSE	FALSE	FALSE	FALSE	TRUE	0	FALSE	TRUE	TRUE
e17	2015	08	06	18	08	f	20	r	3.26905876398	1	157	0.619219718035	0.681420015743	right	tactile	left	visual	target	voice	391.91017393	FALSE	FALSE	FALSE	TRUE	TRUE	0	FALSE	FALSE	TRUE
e17	2015	08	06	18	08	f	20	r	3.26905876398	1	158	0.588893710985	0.667860497739	right	tactile	left	visual	target	voice	317.100549	FALSE	FALSE	FALSE	TRUE	TRUE	0	FALSE	FALSE	TRUE
e17	2015	08	06	18	08	f	20	r	3.26905876398	1	159	0.62381950696	1.38239446133	right	tactile	left	visual	target	voice	399.559964426	FALSE	FALSE	FALSE	FALSE	FALSE	0	FALSE	FALSE	TRUE
e17	2015	08	06	18	08	f	20	r	3.26905876398	1	160	0.520357789937	1.30008045425	right	visual	left	tactile	target	voice	307.488510502	FALSE	FALSE	FALSE	TRUE	TRUE	0	FALSE	TRUE	TRUE
e17	2015	08	06	18	08	f	20	r	12.171795478	2	1	1.36417234107	1.19275052397	left	visual	right	visual	target	voice	NA	TRUE	FALSE	FALSE	FALSE	FALSE	0	FALSE	FALSE	FALSE
e17	2015	08	06	18	08	f	20	r	12.171795478	2	2	0.99140092195	0.561920255623	right	tactile	right	tactile	target	voice	493.242088007	FALSE	FALSE	FALSE	FALSE	FALSE	0	FALSE	FALSE	TRUE
e17	2015	08	06	18	08	f	20	r	12.171795478	2	3	0.577050750959	0.530264167202	left	visual	left	tactile	target	voice	446.388740558	FALSE	FALSE	FALSE	FALSE	FALSE	0	FALSE	FALSE	TRUE
e17	2015	08	06	18	08	f	20	r	12.171795478	2	4	0.405174968997	1.01880744969	left	tactile	left	visual	target	voice	405.993059976	FALSE	FALSE	FALSE	TRUE	TRUE	0	FALSE	FALSE	TRUE
e17	2015	08	06	18	08	f	20	r	12.171795478	2	5	0.39906131092	0.708282102947	right	visual	left	visual	target	voice	435.7207258	FALSE	FALSE	FALSE	FALSE	TRUE	0	FALSE	TRUE	TRUE
e17	2015	08	06	18	08	f	20	r	12.171795478	2	6	0.399882694008	0.529097805562	right	visual	right	tactile	target	voice	679.318509181	FALSE	FALSE	FALSE	FALSE	FALSE	0	FALSE	FALSE	TRUE
e17	2015	08	06	18	08	f	20	r	12.171795478	2	7	0.418673707987	0.965689006601	left	tactile	left	tactile	target	voice	630.059596151	FALSE	FALSE	FALSE	FALSE	TRUE	0	FALSE	TRUE	TRUE
e17	2015	08	06	18	08	f	20	r	12.171795478	2	8	0.411017798004	0.805572944715	right	tactile	right	tactile	target	voice	689.09729505	FALSE	FALSE	FALSE	FALSE	TRUE	0	FALSE	FALSE	TRUE
e17	2015	08	06	18	08	f	20	r	12.171795478	2	9	0.404798049014	0.779557539881	right	visual	right	visual	target	voice	495.13017782	FALSE	FALSE	FALSE	TRUE	TRUE	0	FALSE	FALSE	TRUE
e17	2015	08	06	18	08	f	20	r	12.171795478	2	10	0.406545053003	1.3707156592	right	visual	right	visual	target	voice	509.17272747	FALSE	FALSE	FALSE	FALSE	FALSE	0	FALSE	FALSE	TRUE
e17	2015	08	06	18	08	f	20	r	12.171795478	2	11	0.40180685895	0.57589275371	left	visual	left	visual	target	voice	NA	TRUE	FALSE	FALSE	TRUE	TRUE	0	FALSE	FALSE	FALSE
e17	2015	08	06	18	08	f	20	r	12.171795478	2	12	1.19566861098	0.845114449251	left	visual	right	tactile	target	NA	NA	FALSE	FALSE	FALSE	TRUE	TRUE	0	TRUE	TRUE	TRUE
e17	2015	08	06	18	08	f	20	r	12.171795478	2	13	5.19883179502	0.570697613357	right	visual	left	visual	target	voice	443.660773337	FALSE	FALSE	FALSE	FALSE	FALSE	0	FALSE	FALSE	TRUE
e17	2015	08	06	18	08	f	20	r	12.171795478	2	14	0.467173799989	0.688084472629	right	tactile	left	visual	target	voice	620.304262149	FALSE	FALSE	FALSE	TRUE	TRUE	0	FALSE	FALSE	TRUE
e17	2015	08	06	18	08	f	20	r	12.171795478	2	15	0.416175426915	0.990849043604	right	visual	right	tactile	target	voice	332.225303166	FALSE	FALSE	FALSE	FALSE	TRUE	0	FALSE	FALSE	TRUE
e17	2015	08	06	18	08	f	20	r	12.171795478	2	16	0.399842986953	0.693254773618	left	visual	left	tactile	target	voice	339.371000067	FALSE	FALSE	FALSE	TRUE	TRUE	0	TRUE	TRUE	TRUE
e17	2015	08	06	18	08	f	20	r	12.171795478	2	17	0.405060834019	0.79893025763	right	tactile	left	visual	target	voice	391.78279601	FALSE	FALSE	FALSE	TRUE	TRUE	0	FALSE	FALSE	TRUE
e17	2015	08	06	18	08	f	20	r	12.171795478	2	18	30.760163076	0.626380949503	left	tactile	right	visual	target	voice	NA	TRUE	FALSE	FALSE	FALSE	FALSE	0	FALSE	FALSE	FALSE
e17	2015	08	06	18	08	f	20	r	12.171795478	2	19	1.31915033399	1.14508580673	right	tactile	left	visual	target	voice	366.695321049	FALSE	FALSE	FALSE	TRUE	TRUE	0	FALSE	FALSE	TRUE
e17	2015	08	06	18	08	f	20	r	12.171795478	2	20	1.03819537396	0.534793246282	left	visual	right	tactile	target	voice	340.917794383	FALSE	FALSE	FALSE	TRUE	TRUE	0	TRUE	TRUE	TRUE
e17	2015	08	06	18	08	f	20	r	12.171795478	2	21	6.55247890204	1.35754630487	left	visual	right	tactile	target	voice	429.299576906	FALSE	FALSE	FALSE	FALSE	TRUE	0	FALSE	FALSE	TRUE
e17	2015	08	06	18	08	f	20	r	12.171795478	2	22	0.649847592926	0.956805307727	right	visual	left	visual	target	voice	449.342192034	FALSE	FALSE	FALSE	FALSE	FALSE	0	FALSE	FALSE	TRUE
e17	2015	08	06	18	08	f	20	r	12.171795478	2	23	0.590842109988	0.778584437146	right	tactile	left	visual	target	voice	492.598588578	FALSE	FALSE	FALSE	FALSE	TRUE	0	FALSE	FALSE	TRUE
e17	2015	08	06	18	08	f	20	r	12.171795478	2	24	0.419529880979	0.906590882512	right	visual	left	tactile	target	voice	400.614349288	FALSE	FALSE	FALSE	TRUE	TRUE	0	FALSE	TRUE	TRUE
e17	2015	08	06	18	08	f	20	r	12.171795478	2	25	4.00018291199	0.832589892231	left	visual	left	visual	target	voice	NA	TRUE	FALSE	FALSE	FALSE	FALSE	0	FALSE	FALSE	FALSE
e17	2015	08	06	18	08	f	20	r	12.171795478	2	26	0.735747237923	1.21214147656	left	visual	left	tactile	catch	NA	NA	FALSE	FALSE	FALSE	FALSE	TRUE	0	FALSE	FALSE	TRUE
e17	2015	08	06	18	08	f	20	r	12.171795478	2	27	0.957464672043	1.35115121153	right	visual	left	visual	target	voice	265.196275082	FALSE	FALSE	FALSE	FALSE	TRUE	0	FALSE	TRUE	TRUE
e17	2015	08	06	18	08	f	20	r	12.171795478	2	28	0.684020746034	0.572162614626	left	tactile	right	tactile	target	voice	427.722183056	FALSE	FALSE	FALSE	TRUE	TRUE	0	FALSE	FALSE	TRUE
e17	2015	08	06	18	08	f	20	r	12.171795478	2	29	3.49631864997	0.981621540605	left	tactile	right	tactile	target	voice	NA	TRUE	FALSE	FALSE	FALSE	FALSE	0	FALSE	FALSE	FALSE
e17	2015	08	06	18	08	f	20	r	12.171795478	2	30	1.44790047803	1.13714531251	right	tactile	right	tactile	target	voice	497.569905245	FALSE	FALSE	FALSE	TRUE	TRUE	0	TRUE	TRUE	TRUE
e17	2015	08	06	18	08	f	20	r	12.171795478	2	31	0.397349943989	1.25796437101	left	tactile	right	tactile	target	voice	233.960560639	FALSE	FALSE	FALSE	TRUE	TRUE	0	FALSE	FALSE	TRUE
e17	2015	08	06	18	08	f	20	r	12.171795478	2	32	0.453410607064	1.34550704744	right	tactile	left	tactile	target	voice	368.546739221	FALSE	FALSE	FALSE	FALSE	TRUE	0	FALSE	FALSE	TRUE
e17	2015	08	06	18	08	f	20	r	12.171795478	2	33	6.75190142798	1.3732298091	left	visual	left	tactile	target	voice	200.204195688	FALSE	FALSE	FALSE	FALSE	TRUE	0	FALSE	FALSE	TRUE
e17	2015	08	06	18	08	f	20	r	12.171795478	2	34	1.31084338506	1.12410650948	right	tactile	left	tactile	target	voice	475.241851178	FALSE	FALSE	FALSE	FALSE	TRUE	0	FALSE	FALSE	TRUE
e17	2015	08	06	18	08	f	20	r	12.171795478	2	35	0.437989593949	0.805938931131	right	tactile	right	visual	target	voice	926.813612576	FALSE	FALSE	FALSE	TRUE	TRUE	0	FALSE	FALSE	TRUE
e17	2015	08	06	18	08	f	20	r	12.171795478	2	36	31.653436322	0.986178337804	right	tactile	right	tactile	target	NA	NA	FALSE	FALSE	FALSE	FALSE	TRUE	0	FALSE	TRUE	TRUE
e17	2015	08	06	18	08	f	20	r	12.171795478	2	37	0.962924218969	0.662466019882	right	visual	left	tactile	target	voice	385.263937875	FALSE	FALSE	FALSE	FALSE	FALSE	0	FALSE	FALSE	TRUE
e17	2015	08	06	18	08	f	20	r	12.171795478	2	38	0.587353601004	0.641926420789	left	visual	right	visual	target	voice	392.240790999	FALSE	FALSE	FALSE	FALSE	FALSE	0	FALSE	FALSE	TRUE
e17	2015	08	06	18	08	f	20	r	12.171795478	2	39	0.747876587091	0.653056951027	left	tactile	left	visual	target	voice	598.127750796	FALSE	FALSE	FALSE	FALSE	TRUE	0	FALSE	FALSE	TRUE
e17	2015	08	06	18	08	f	20	r	12.171795478	2	40	0.40332983993	1.1547711194	right	visual	left	tactile	target	voice	257.263729349	FALSE	FALSE	FALSE	FALSE	TRUE	0	FALSE	FALSE	TRUE
e17	2015	08	06	18	08	f	20	r	4.07168112195	2	41	1.47352380597	1.40573352492	left	tactile	right	visual	target	voice	666.81333771	FALSE	FALSE	FALSE	FALSE	FALSE	0	FALSE	FALSE	TRUE
e17	2015	08	06	18	08	f	20	r	4.07168112195	2	42	0.608545070048	0.666422568625	right	visual	right	visual	target	voice	576.302307192	FALSE	FALSE	FALSE	TRUE	TRUE	0	FALSE	FALSE	TRUE
e17	2015	08	06	18	08	f	20	r	4.07168112195	2	43	0.551642889972	0.616130553584	right	tactile	right	tactile	target	voice	522.47017622	FALSE	FALSE	FALSE	TRUE	TRUE	0	FALSE	FALSE	TRUE
e17	2015	08	06	18	08	f	20	r	4.07168112195	2	44	0.637774682953	1.13364333243	left	visual	right	visual	target	voice	NA	TRUE	FALSE	FALSE	FALSE	TRUE	0	FALSE	FALSE	FALSE
e17	2015	08	06	18	08	f	20	r	4.07168112195	2	45	0.898101754021	1.46027881928	left	tactile	left	tactile	target	voice	436.2001064	FALSE	FALSE	FALSE	FALSE	FALSE	0	FALSE	FALSE	TRUE
e17	2015	08	06	18	08	f	20	r	4.07168112195	2	46	0.564310453017	0.942493599944	right	visual	left	visual	target	voice	359.864168684	FALSE	FALSE	FALSE	TRUE	TRUE	0	FALSE	TRUE	TRUE
e17	2015	08	06	18	08	f	20	r	4.07168112195	2	47	0.563058590051	1.36090291452	left	tactile	right	tactile	target	voice	239.090292132	FALSE	FALSE	FALSE	TRUE	TRUE	0	FALSE	FALSE	TRUE
e17	2015	08	06	18	08	f	20	r	4.07168112195	2	48	0.492652726942	0.981060786684	left	visual	right	tactile	target	voice	153.784111026	FALSE	FALSE	FALSE	TRUE	TRUE	0	FALSE	FALSE	TRUE
e17	2015	08	06	18	08	f	20	r	4.07168112195	2	49	0.60188808199	1.44298259333	left	visual	right	tactile	target	voice	246.822974412	FALSE	FALSE	FALSE	FALSE	TRUE	0	FALSE	FALSE	TRUE
e17	2015	08	06	18	08	f	20	r	4.07168112195	2	50	0.399786171038	0.807048701068	left	visual	right	visual	target	voice	NA	TRUE	FALSE	FALSE	TRUE	FALSE	0	FALSE	FALSE	FALSE
e17	2015	08	06	18	08	f	20	r	4.07168112195	2	51	1.69347322301	0.996017728169	right	visual	right	tactile	target	NA	NA	FALSE	FALSE	FALSE	FALSE	TRUE	0	FALSE	TRUE	TRUE
e17	2015	08	06	18	08	f	20	r	4.07168112195	2	52	0.819493668969	1.11165197056	right	tactile	right	visual	target	voice	447.810577229	FALSE	FALSE	FALSE	TRUE	TRUE	0	FALSE	FALSE	TRUE
e17	2015	08	06	18	08	f	20	r	4.07168112195	2	53	0.561697010999	1.47390354729	left	tactile	right	tactile	target	voice	284.104928374	FALSE	FALSE	FALSE	TRUE	TRUE	0	FALSE	FALSE	TRUE
e17	2015	08	06	18	08	f	20	r	4.07168112195	2	54	0.454686954035	1.15926849625	left	visual	left	tactile	target	voice	504.655981553	FALSE	FALSE	FALSE	FALSE	TRUE	0	FALSE	FALSE	TRUE
e17	2015	08	06	18	08	f	20	r	4.07168112195	2	55	0.423932638951	1.49858812518	right	tactile	left	tactile	target	voice	257.247689529	FALSE	FALSE	FALSE	TRUE	TRUE	0	FALSE	FALSE	TRUE
e17	2015	08	06	18	08	f	20	r	4.07168112195	2	56	0.406827735016	0.507245404425	right	tactile	left	tactile	target	voice	NA	TRUE	FALSE	FALSE	TRUE	TRUE	0	TRUE	TRUE	FALSE
e17	2015	08	06	18	08	f	20	r	4.07168112195	2	57	1.40865586803	1.49632377842	right	tactile	right	visual	target	voice	512.468408328	FALSE	FALSE	FALSE	FALSE	TRUE	0	FALSE	FALSE	TRUE
e17	2015	08	06	18	08	f	20	r	4.07168112195	2	58	0.727099441923	0.711345829822	left	tactile	left	visual	target	voice	843.228201964	FALSE	FALSE	FALSE	TRUE	TRUE	0	TRUE	TRUE	TRUE
e17	2015	08	06	18	08	f	20	r	4.07168112195	2	59	0.631985171	1.10644331135	right	visual	right	tactile	target	voice	387.112997356	FALSE	FALSE	FALSE	FALSE	TRUE	0	FALSE	FALSE	TRUE
e17	2015	08	06	18	08	f	20	r	4.07168112195	2	60	0.650015029009	0.8236623456	left	tactile	right	visual	target	voice	965.620157076	FALSE	FALSE	FALSE	TRUE	TRUE	0	FALSE	TRUE	TRUE
e17	2015	08	06	18	08	f	20	r	4.07168112195	2	61	0.484361098032	1.49498462344	left	tactile	left	tactile	target	voice	519.720823271	FALSE	FALSE	FALSE	TRUE	TRUE	0	FALSE	FALSE	TRUE
e17	2015	08	06	18	08	f	20	r	4.07168112195	2	62	0.402421655948	0.805931757058	right	tactile	right	visual	target	voice	467.772974633	FALSE	FALSE	FALSE	TRUE	TRUE	0	FALSE	FALSE	TRUE
e17	2015	08	06	18	08	f	20	r	4.07168112195	2	63	0.506574561005	1.29928689656	left	visual	right	tactile	target	voice	487.769619096	FALSE	FALSE	FALSE	TRUE	TRUE	0	FALSE	FALSE	TRUE
e17	2015	08	06	18	08	f	20	r	4.07168112195	2	64	0.546790492954	0.893847872016	right	tactile	right	visual	target	voice	680.437004776	FALSE	FALSE	FALSE	TRUE	TRUE	0	FALSE	FALSE	TRUE
e17	2015	08	06	18	08	f	20	r	4.07168112195	2	65	0.458483592956	1.07765727058	left	tactile	left	visual	catch	NA	NA	FALSE	FALSE	FALSE	TRUE	TRUE	0	FALSE	FALSE	TRUE
e17	2015	08	06	18	08	f	20	r	4.07168112195	2	66	0.510805145022	1.29783161766	right	visual	left	visual	target	voice	NA	TRUE	FALSE	FALSE	FALSE	FALSE	0	FALSE	FALSE	FALSE
e17	2015	08	06	18	08	f	20	r	4.07168112195	2	67	0.76888479304	0.670212935569	left	visual	left	visual	target	voice	698.483991204	FALSE	FALSE	FALSE	FALSE	FALSE	0	FALSE	FALSE	TRUE
e17	2015	08	06	18	08	f	20	r	4.07168112195	2	68	0.407901974046	1.08395895379	right	tactile	right	tactile	target	voice	757.813389064	FALSE	FALSE	FALSE	TRUE	TRUE	0	FALSE	FALSE	TRUE
e17	2015	08	06	18	08	f	20	r	4.07168112195	2	69	0.532209147932	1.00104301987	left	tactile	right	visual	target	voice	NA	TRUE	FALSE	FALSE	TRUE	FALSE	0	FALSE	FALSE	FALSE
e17	2015	08	06	18	08	f	20	r	4.07168112195	2	70	1.28765686508	0.512580672886	right	visual	left	tactile	target	voice	446.274157846	FALSE	FALSE	FALSE	FALSE	FALSE	0	FALSE	FALSE	TRUE
e17	2015	08	06	18	08	f	20	r	4.07168112195	2	71	0.437094948022	0.728599225552	left	tactile	right	visual	target	voice	679.588831263	FALSE	FALSE	FALSE	TRUE	TRUE	0	FALSE	FALSE	TRUE
e17	2015	08	06	18	08	f	20	r	4.07168112195	2	72	0.431191219948	1.47877348579	left	tactile	right	visual	target	voice	433.383216965	FALSE	FALSE	FALSE	TRUE	TRUE	0	FALSE	FALSE	TRUE
e17	2015	08	06	18	08	f	20	r	4.07168112195	2	73	0.388150221901	0.556940070066	right	tactile	right	visual	target	voice	468.355122604	FALSE	FALSE	FALSE	TRUE	TRUE	0	FALSE	FALSE	TRUE
e17	2015	08	06	18	08	f	20	r	4.07168112195	2	74	0.403816704988	1.31876885739	left	visual	left	visual	target	voice	62.85042339	FALSE	FALSE	FALSE	TRUE	TRUE	0	FALSE	FALSE	TRUE
e17	2015	08	06	18	08	f	20	r	4.07168112195	2	75	0.539811269031	0.932600921746	left	visual	left	tactile	target	voice	699.343339074	FALSE	FALSE	FALSE	FALSE	TRUE	0	FALSE	FALSE	TRUE
e17	2015	08	06	18	08	f	20	r	4.07168112195	2	76	0.408767572953	1.23069553497	left	visual	right	tactile	catch	NA	NA	FALSE	FALSE	FALSE	TRUE	TRUE	0	FALSE	FALSE	TRUE
e17	2015	08	06	18	08	f	20	r	4.07168112195	2	77	0.792121305014	1.18996557371	right	visual	left	visual	target	voice	NA	TRUE	FALSE	FALSE	FALSE	FALSE	0	FALSE	FALSE	FALSE
e17	2015	08	06	18	08	f	20	r	4.07168112195	2	78	1.23722996097	1.16284410058	right	tactile	left	visual	catch	NA	NA	FALSE	FALSE	FALSE	FALSE	FALSE	0	FALSE	FALSE	TRUE
e17	2015	08	06	18	08	f	20	r	4.07168112195	2	79	0.657176536042	1.17278136262	right	visual	right	visual	target	voice	726.081673987	FALSE	FALSE	FALSE	TRUE	TRUE	0	FALSE	TRUE	TRUE
e17	2015	08	06	18	08	f	20	r	4.07168112195	2	80	0.422655070084	0.864526884856	right	visual	left	tactile	target	voice	841.247041943	FALSE	FALSE	FALSE	TRUE	TRUE	0	FALSE	FALSE	TRUE
e17	2015	08	06	18	08	f	20	r	6.715464429	2	81	2.56292553502	1.25981610246	left	tactile	right	tactile	target	voice	780.989973224	FALSE	FALSE	FALSE	TRUE	TRUE	0	FALSE	FALSE	TRUE
e17	2015	08	06	18	08	f	20	r	6.715464429	2	82	0.551290211966	0.713292052435	right	tactile	left	visual	target	voice	591.225000331	FALSE	FALSE	FALSE	TRUE	TRUE	0	FALSE	FALSE	TRUE
e17	2015	08	06	18	08	f	20	r	6.715464429	2	83	0.532470909995	0.551927459954	right	visual	right	visual	target	voice	744.733572705	FALSE	FALSE	FALSE	TRUE	TRUE	0	FALSE	FALSE	TRUE
e17	2015	08	06	18	08	f	20	r	6.715464429	2	84	0.495871099993	1.37551293093	left	tactile	left	visual	target	voice	407.329793787	FALSE	FALSE	FALSE	TRUE	TRUE	0	FALSE	FALSE	TRUE
e17	2015	08	06	18	08	f	20	r	6.715464429	2	85	0.412183962995	0.729625447328	left	tactile	right	visual	target	voice	644.681411446	FALSE	FALSE	FALSE	TRUE	TRUE	0	FALSE	FALSE	TRUE
e17	2015	08	06	18	08	f	20	r	6.715464429	2	86	0.516503800056	1.37702691391	right	tactile	left	tactile	target	voice	NA	TRUE	FALSE	FALSE	TRUE	TRUE	0	FALSE	FALSE	FALSE
e17	2015	08	06	18	08	f	20	r	6.715464429	2	87	0.805483066943	0.976025850677	right	visual	left	visual	target	voice	435.312871006	FALSE	FALSE	FALSE	FALSE	FALSE	0	FALSE	FALSE	TRUE
e17	2015	08	06	18	08	f	20	r	6.715464429	2	88	0.463280049036	1.49044786266	left	tactile	left	visual	target	voice	533.041953109	FALSE	FALSE	FALSE	FALSE	TRUE	0	FALSE	FALSE	TRUE
e17	2015	08	06	18	08	f	20	r	6.715464429	2	89	0.412090529921	1.20026243829	left	visual	left	visual	target	voice	496.660676436	FALSE	FALSE	FALSE	TRUE	TRUE	0	FALSE	FALSE	TRUE
e17	2015	08	06	18	08	f	20	r	6.715464429	2	90	0.433183412999	1.12854111188	right	visual	left	tactile	target	voice	220.19033588	FALSE	FALSE	FALSE	TRUE	TRUE	0	FALSE	FALSE	TRUE
e17	2015	08	06	18	08	f	20	r	6.715464429	2	91	0.679996396997	0.799231922444	right	tactile	left	tactile	target	voice	306.688364246	FALSE	FALSE	FALSE	TRUE	TRUE	0	FALSE	FALSE	TRUE
e17	2015	08	06	18	08	f	20	r	6.715464429	2	92	0.608543343027	0.854234801324	right	visual	right	tactile	target	voice	367.903605336	FALSE	FALSE	FALSE	TRUE	TRUE	0	FALSE	FALSE	TRUE
e17	2015	08	06	18	08	f	20	r	6.715464429	2	93	0.458704793942	0.75150093544	left	tactile	right	tactile	target	voice	405.416809255	FALSE	FALSE	FALSE	TRUE	TRUE	0	FALSE	TRUE	TRUE
e17	2015	08	06	18	08	f	20	r	6.715464429	2	94	0.52576821798	0.558809690686	left	tactile	left	tactile	target	voice	NA	TRUE	FALSE	FALSE	TRUE	TRUE	0	FALSE	FALSE	FALSE
e17	2015	08	06	18	08	f	20	r	6.715464429	2	95	1.23713629495	0.886308023878	right	visual	right	tactile	target	voice	386.860082857	FALSE	FALSE	FALSE	FALSE	FALSE	0	FALSE	FALSE	TRUE
e17	2015	08	06	18	08	f	20	r	6.715464429	2	96	0.434240919072	1.30616163889	left	visual	right	tactile	target	voice	557.900243788	FALSE	FALSE	FALSE	TRUE	TRUE	0	FALSE	FALSE	TRUE
e17	2015	08	06	18	08	f	20	r	6.715464429	2	97	0.582755438052	0.711556864314	left	visual	left	visual	target	voice	NA	TRUE	FALSE	FALSE	TRUE	FALSE	0	FALSE	FALSE	FALSE
e17	2015	08	06	18	08	f	20	r	6.715464429	2	98	1.14301066403	1.28396902	right	visual	left	tactile	catch	NA	NA	FALSE	FALSE	FALSE	TRUE	TRUE	0	FALSE	FALSE	TRUE
e17	2015	08	06	18	08	f	20	r	6.715464429	2	99	0.414150955039	1.42221187091	left	visual	right	visual	target	voice	371.02981389	FALSE	FALSE	FALSE	FALSE	FALSE	0	FALSE	FALSE	TRUE
e17	2015	08	06	18	08	f	20	r	6.715464429	2	100	0.525005800999	1.09258689831	right	visual	right	tactile	catch	NA	NA	FALSE	FALSE	FALSE	FALSE	TRUE	0	FALSE	FALSE	TRUE
e17	2015	08	06	18	08	f	20	r	6.715464429	2	101	0.97133127111	0.830888987451	right	tactile	left	visual	target	voice	428.012963384	FALSE	FALSE	FALSE	TRUE	TRUE	0	FALSE	FALSE	TRUE
e17	2015	08	06	18	08	f	20	r	6.715464429	2	102	0.474791958928	0.613944954108	right	tactile	right	tactile	target	NA	NA	FALSE	FALSE	FALSE	TRUE	TRUE	0	FALSE	TRUE	TRUE
e17	2015	08	06	18	08	f	20	r	6.715464429	2	103	0.748559296946	0.582788433267	right	tactile	right	visual	catch	voice	NA	TRUE	FALSE	FALSE	TRUE	TRUE	0	FALSE	FALSE	FALSE
e17	2015	08	06	18	08	f	20	r	6.715464429	2	104	1.39822136192	1.47643781814	right	tactile	right	visual	target	voice	413.042422617	FALSE	FALSE	FALSE	FALSE	TRUE	0	FALSE	TRUE	TRUE
e17	2015	08	06	18	08	f	20	r	6.715464429	2	105	0.630303255981	0.956234047159	right	visual	left	tactile	target	voice	438.087914605	FALSE	FALSE	FALSE	TRUE	TRUE	0	FALSE	FALSE	TRUE
e17	2015	08	06	18	08	f	20	r	6.715464429	2	106	0.580700577004	0.600700875178	left	visual	right	visual	target	voice	583.459245507	FALSE	FALSE	FALSE	FALSE	TRUE	0	FALSE	TRUE	TRUE
e17	2015	08	06	18	08	f	20	r	6.715464429	2	107	0.664195331978	0.784664375458	left	tactile	left	tactile	target	voice	389.539241325	FALSE	FALSE	FALSE	TRUE	TRUE	0	FALSE	FALSE	TRUE
e17	2015	08	06	18	08	f	20	r	6.715464429	2	108	0.553640341037	1.19645294083	left	tactile	left	visual	target	voice	NA	TRUE	FALSE	FALSE	TRUE	TRUE	0	FALSE	FALSE	FALSE
e17	2015	08	06	18	08	f	20	r	6.715464429	2	109	1.55401708605	1.37761414404	left	visual	right	tactile	target	voice	243.383664638	FALSE	FALSE	FALSE	TRUE	TRUE	0	FALSE	FALSE	TRUE
e17	2015	08	06	18	08	f	20	r	6.715464429	2	110	0.943127620034	0.882806064485	right	visual	right	visual	target	voice	661.938391277	FALSE	FALSE	FALSE	TRUE	TRUE	0	FALSE	FALSE	TRUE
e17	2015	08	06	18	08	f	20	r	6.715464429	2	111	0.675921484013	1.42534421936	left	tactile	right	visual	catch	NA	NA	FALSE	FALSE	FALSE	TRUE	TRUE	0	FALSE	FALSE	TRUE
e17	2015	08	06	18	08	f	20	r	6.715464429	2	112	0.571254531969	1.45722091104	right	visual	right	visual	catch	NA	NA	FALSE	FALSE	FALSE	TRUE	TRUE	0	FALSE	TRUE	TRUE
e17	2015	08	06	18	08	f	20	r	6.715464429	2	113	0.666501316009	1.11037065263	right	visual	left	tactile	target	voice	308.177071158	FALSE	FALSE	FALSE	TRUE	TRUE	0	FALSE	FALSE	TRUE
e17	2015	08	06	18	08	f	20	r	6.715464429	2	114	0.753565854975	0.954722606139	left	tactile	left	tactile	target	voice	537.365324679	FALSE	FALSE	FALSE	TRUE	TRUE	0	FALSE	FALSE	TRUE
e17	2015	08	06	18	08	f	20	r	6.715464429	2	115	0.702660871088	0.732587903678	right	visual	left	visual	catch	NA	NA	FALSE	FALSE	FALSE	FALSE	FALSE	0	FALSE	FALSE	TRUE
e17	2015	08	06	18	08	f	20	r	6.715464429	2	116	0.517271952005	1.40074611401	left	tactile	left	tactile	target	voice	467.622194672	FALSE	FALSE	FALSE	TRUE	TRUE	0	FALSE	FALSE	TRUE
e17	2015	08	06	18	08	f	20	r	6.715464429	2	117	0.645034003886	0.574724603726	left	tactile	right	tactile	target	voice	545.566990972	FALSE	FALSE	FALSE	TRUE	TRUE	0	FALSE	FALSE	TRUE
e17	2015	08	06	18	08	f	20	r	6.715464429	2	118	0.656245604041	1.23761002038	left	tactile	left	tactile	target	voice	268.93446641	FALSE	FALSE	FALSE	TRUE	TRUE	0	FALSE	FALSE	TRUE
e17	2015	08	06	18	08	f	20	r	6.715464429	2	119	0.492352033034	0.629277967723	left	visual	right	visual	target	NA	NA	FALSE	FALSE	FALSE	FALSE	TRUE	0	FALSE	FALSE	TRUE
e17	2015	08	06	18	08	f	20	r	6.715464429	2	120	0.657382727019	1.33230147359	right	tactile	left	visual	target	voice	NA	TRUE	FALSE	FALSE	TRUE	TRUE	0	FALSE	FALSE	FALSE
e17	2015	08	06	18	08	f	20	r	5.44385752501	2	121	1.5405432299	0.889936479419	left	visual	left	visual	target	voice	420.83640839	FALSE	FALSE	FALSE	FALSE	TRUE	0	FALSE	TRUE	TRUE
e17	2015	08	06	18	08	f	20	r	5.44385752501	2	122	1.995813841	1.33443916217	right	visual	left	visual	target	voice	NA	TRUE	FALSE	FALSE	FALSE	TRUE	0	FALSE	TRUE	FALSE
e17	2015	08	06	18	08	f	20	r	5.44385752501	2	123	5.2639803061	0.685698159518	left	tactile	left	visual	target	voice	621.496541193	FALSE	FALSE	FALSE	FALSE	FALSE	0	FALSE	FALSE	TRUE
e17	2015	08	06	18	08	f	20	r	5.44385752501	2	124	0.798348843004	0.595147784085	right	visual	right	visual	target	voice	470.216504647	FALSE	FALSE	FALSE	FALSE	TRUE	0	FALSE	TRUE	TRUE
e17	2015	08	06	18	08	f	20	r	5.44385752501	2	125	0.977649583016	0.895031804193	right	tactile	left	tactile	target	voice	339.187593549	FALSE	FALSE	FALSE	TRUE	TRUE	0	FALSE	FALSE	TRUE
e17	2015	08	06	18	08	f	20	r	5.44385752501	2	126	0.740783805028	0.65891911885	right	visual	right	tactile	target	voice	374.993439997	FALSE	FALSE	FALSE	FALSE	FALSE	0	FALSE	FALSE	TRUE
e17	2015	08	06	18	08	f	20	r	5.44385752501	2	127	0.795371485059	0.806412432102	left	visual	left	visual	target	voice	394.78041965	FALSE	FALSE	FALSE	TRUE	TRUE	0	FALSE	FALSE	TRUE
e17	2015	08	06	18	08	f	20	r	5.44385752501	2	128	0.602716939989	0.977372730511	left	visual	right	tactile	target	voice	NA	TRUE	FALSE	FALSE	TRUE	TRUE	0	FALSE	FALSE	FALSE
e17	2015	08	06	18	08	f	20	r	5.44385752501	2	129	1.001259287	1.20802207314	right	tactile	left	visual	target	voice	NA	TRUE	FALSE	FALSE	FALSE	TRUE	0	FALSE	FALSE	FALSE
e17	2015	08	06	18	08	f	20	r	5.44385752501	2	130	2.15581702197	1.49268078351	left	tactile	left	tactile	catch	NA	NA	FALSE	FALSE	FALSE	FALSE	FALSE	0	FALSE	FALSE	TRUE
e17	2015	08	06	18	08	f	20	r	5.44385752501	2	131	0.39716067398	0.965654097026	left	visual	left	tactile	target	voice	499.206989771	FALSE	FALSE	FALSE	FALSE	FALSE	0	FALSE	FALSE	TRUE
e17	2015	08	06	18	08	f	20	r	5.44385752501	2	132	0.700096250977	0.551054244993	left	tactile	left	visual	target	voice	494.06933866	FALSE	FALSE	FALSE	TRUE	TRUE	0	FALSE	FALSE	TRUE
e17	2015	08	06	18	08	f	20	r	5.44385752501	2	133	0.611177059007	1.31211623664	left	visual	left	tactile	target	voice	340.431905119	FALSE	FALSE	FALSE	FALSE	TRUE	0	FALSE	TRUE	TRUE
e17	2015	08	06	18	08	f	20	r	5.44385752501	2	134	0.547871586983	0.517725498771	right	tactile	right	tactile	target	voice	492.275532917	FALSE	FALSE	FALSE	TRUE	TRUE	0	FALSE	FALSE	TRUE
e17	2015	08	06	18	08	f	20	r	5.44385752501	2	135	0.636403971934	0.617960265702	left	visual	left	visual	target	voice	598.172531929	FALSE	FALSE	FALSE	TRUE	TRUE	0	FALSE	FALSE	TRUE
e17	2015	08	06	18	08	f	20	r	5.44385752501	2	136	0.468477292918	1.41315000207	right	visual	left	tactile	target	voice	NA	TRUE	FALSE	FALSE	TRUE	TRUE	0	FALSE	FALSE	FALSE
e17	2015	08	06	18	08	f	20	r	5.44385752501	2	137	1.58032473898	1.46205286045	left	tactile	right	visual	target	voice	534.338990343	FALSE	FALSE	FALSE	FALSE	TRUE	0	FALSE	TRUE	TRUE
e17	2015	08	06	18	08	f	20	r	5.44385752501	2	138	4.61843343603	1.20740429582	right	visual	right	visual	target	voice	574.898890918	FALSE	FALSE	FALSE	FALSE	TRUE	0	FALSE	TRUE	TRUE
e17	2015	08	06	18	08	f	20	r	5.44385752501	2	139	1.42557221593	1.45544560333	right	tactile	right	tactile	catch	NA	NA	FALSE	FALSE	FALSE	FALSE	FALSE	0	FALSE	FALSE	TRUE
e17	2015	08	06	18	08	f	20	r	5.44385752501	2	140	7.86581457104	1.02970993712	left	visual	right	visual	target	voice	540.753254551	FALSE	FALSE	FALSE	FALSE	FALSE	0	FALSE	FALSE	TRUE
e17	2015	08	06	18	08	f	20	r	5.44385752501	2	141	2.62577872304	1.28786702701	left	tactile	right	tactile	target	voice	42.1040117508	FALSE	FALSE	FALSE	TRUE	TRUE	0	TRUE	TRUE	TRUE
e17	2015	08	06	18	08	f	20	r	5.44385752501	2	142	1.07038908696	0.77171340769	left	visual	right	visual	target	voice	474.006293109	FALSE	FALSE	FALSE	FALSE	TRUE	0	FALSE	FALSE	TRUE
e17	2015	08	06	18	08	f	20	r	5.44385752501	2	143	0.794688490918	1.01211793942	left	tactile	left	visual	target	voice	465.003384394	FALSE	FALSE	FALSE	TRUE	TRUE	0	FALSE	FALSE	TRUE
e17	2015	08	06	18	08	f	20	r	5.44385752501	2	144	0.525475904928	1.0320457074	right	tactile	left	visual	target	voice	333.045973442	FALSE	FALSE	FALSE	TRUE	TRUE	0	FALSE	FALSE	TRUE
e17	2015	08	06	18	08	f	20	r	5.44385752501	2	145	6.12957595894	1.00358110988	right	tactile	right	visual	target	voice	409.687426873	FALSE	FALSE	FALSE	FALSE	FALSE	0	FALSE	FALSE	TRUE
e17	2015	08	06	18	08	f	20	r	5.44385752501	2	146	0.520889267093	0.859087809716	right	tactile	right	tactile	target	voice	607.870964101	FALSE	FALSE	FALSE	TRUE	TRUE	0	FALSE	FALSE	TRUE
e17	2015	08	06	18	08	f	20	r	5.44385752501	2	147	10.060450945	1.33272631379	left	tactile	right	tactile	catch	NA	NA	FALSE	FALSE	FALSE	FALSE	TRUE	0	FALSE	FALSE	TRUE
e17	2015	08	06	18	08	f	20	r	5.44385752501	2	148	0.645240103942	1.00306965215	left	visual	left	tactile	target	voice	454.016529606	FALSE	FALSE	FALSE	FALSE	TRUE	0	FALSE	FALSE	TRUE
e17	2015	08	06	18	08	f	20	r	5.44385752501	2	149	0.584851528984	1.12488831631	left	visual	left	visual	catch	NA	NA	FALSE	FALSE	FALSE	FALSE	TRUE	0	FALSE	FALSE	TRUE
e17	2015	08	06	18	08	f	20	r	5.44385752501	2	150	0.510096922982	0.68709100674	left	visual	right	visual	catch	NA	NA	FALSE	FALSE	FALSE	TRUE	TRUE	0	FALSE	FALSE	TRUE
e17	2015	08	06	18	08	f	20	r	5.44385752501	2	151	0.540935194935	1.40687901011	right	tactile	left	tactile	catch	NA	NA	FALSE	FALSE	FALSE	FALSE	TRUE	0	FALSE	TRUE	TRUE
e17	2015	08	06	18	08	f	20	r	5.44385752501	2	152	0.518141177949	0.934443513411	left	tactile	left	tactile	target	voice	754.89198335	FALSE	FALSE	FALSE	TRUE	TRUE	0	FALSE	TRUE	TRUE
e17	2015	08	06	18	08	f	20	r	5.44385752501	2	153	0.533530851942	1.34033479096	right	visual	right	tactile	target	NA	NA	FALSE	FALSE	FALSE	TRUE	TRUE	0	FALSE	TRUE	TRUE
e17	2015	08	06	18	08	f	20	r	5.44385752501	2	154	0.68617607397	1.00163789703	right	tactile	right	visual	target	voice	411.376796779	FALSE	FALSE	FALSE	TRUE	TRUE	0	FALSE	FALSE	TRUE
e17	2015	08	06	18	08	f	20	r	5.44385752501	2	155	0.547981407028	0.723592846169	right	tactile	left	tactile	target	voice	431.682127528	FALSE	FALSE	FALSE	TRUE	TRUE	0	FALSE	FALSE	TRUE
e17	2015	08	06	18	08	f	20	r	5.44385752501	2	156	0.533995963982	1.44376822516	right	visual	right	visual	target	voice	378.590422566	FALSE	FALSE	FALSE	TRUE	TRUE	0	FALSE	FALSE	TRUE
e17	2015	08	06	18	08	f	20	r	5.44385752501	2	157	0.468685141997	0.880014980729	right	tactile	left	tactile	target	voice	603.481233004	FALSE	FALSE	FALSE	TRUE	TRUE	0	FALSE	FALSE	TRUE
e17	2015	08	06	18	08	f	20	r	5.44385752501	2	158	0.401691753068	0.917664907239	left	tactile	right	visual	target	voice	580.032768426	FALSE	FALSE	FALSE	TRUE	TRUE	0	FALSE	FALSE	TRUE
e17	2015	08	06	18	08	f	20	r	5.44385752501	2	159	0.481278682943	1.31022615182	right	visual	right	tactile	target	voice	285.276947892	FALSE	FALSE	FALSE	FALSE	TRUE	0	FALSE	FALSE	TRUE
e17	2015	08	06	18	08	f	20	r	5.44385752501	2	160	0.580303439056	1.42680800449	left	visual	left	tactile	target	voice	NA	TRUE	FALSE	FALSE	TRUE	TRUE	0	FALSE	FALSE	FALSE
e17	2015	08	06	18	08	f	20	r	14.047536056	3	1	1.14884152799	1.18241651658	right	visual	right	visual	target	voice	NA	TRUE	FALSE	FALSE	FALSE	TRUE	0	FALSE	FALSE	FALSE
e17	2015	08	06	18	08	f	20	r	14.047536056	3	2	0.843379823957	1.01913285859	left	tactile	right	visual	target	voice	337.632909068	FALSE	FALSE	FALSE	TRUE	TRUE	0	TRUE	TRUE	TRUE
e17	2015	08	06	18	08	f	20	r	14.047536056	3	3	2.92225543992	1.31063433679	left	tactile	left	tactile	target	voice	772.974986932	FALSE	FALSE	FALSE	FALSE	TRUE	0	FALSE	TRUE	TRUE
e17	2015	08	06	18	08	f	20	r	14.047536056	3	4	6.12399267696	1.01189844888	left	tactile	right	tactile	target	voice	345.075402758	FALSE	FALSE	FALSE	TRUE	TRUE	0	TRUE	TRUE	TRUE
e17	2015	08	06	18	08	f	20	r	14.047536056	3	5	9.40374758595	0.937684822863	right	tactile	right	tactile	target	voice	636.413741857	FALSE	FALSE	FALSE	FALSE	FALSE	0	FALSE	FALSE	TRUE
e17	2015	08	06	18	08	f	20	r	14.047536056	3	6	0.791166472016	1.3275447377	right	tactile	left	visual	target	voice	401.940990007	FALSE	FALSE	FALSE	FALSE	TRUE	0	FALSE	FALSE	TRUE
e17	2015	08	06	18	08	f	20	r	14.047536056	3	7	0.768050255021	1.32323867719	right	tactile	right	visual	target	voice	519.759295508	FALSE	FALSE	FALSE	FALSE	TRUE	0	FALSE	TRUE	TRUE
e17	2015	08	06	18	08	f	20	r	14.047536056	3	8	0.685268020025	1.48595830094	right	tactile	left	tactile	target	voice	490.33352884	FALSE	FALSE	FALSE	TRUE	TRUE	0	FALSE	FALSE	TRUE
e17	2015	08	06	18	08	f	20	r	14.047536056	3	9	0.635465044994	0.768396935513	right	tactile	left	tactile	target	NA	NA	FALSE	FALSE	FALSE	TRUE	TRUE	0	TRUE	TRUE	TRUE
e17	2015	08	06	18	08	f	20	r	14.047536056	3	10	7.43389165401	1.46582834339	right	tactile	right	visual	target	voice	534.83259934	FALSE	FALSE	FALSE	FALSE	TRUE	0	FALSE	TRUE	TRUE
e17	2015	08	06	18	08	f	20	r	14.047536056	3	11	1.29952798493	1.04079115	right	visual	left	visual	target	voice	585.85585875	FALSE	FALSE	FALSE	FALSE	FALSE	0	FALSE	FALSE	TRUE
e17	2015	08	06	18	08	f	20	r	14.047536056	3	12	3.53139022191	1.15851290613	right	tactile	right	tactile	catch	NA	NA	FALSE	FALSE	FALSE	TRUE	TRUE	0	FALSE	TRUE	TRUE
e17	2015	08	06	18	08	f	20	r	14.047536056	3	13	0.998042920022	1.27015523612	left	tactile	right	visual	target	voice	486.674288637	FALSE	FALSE	FALSE	FALSE	TRUE	0	FALSE	FALSE	TRUE
e17	2015	08	06	18	08	f	20	r	14.047536056	3	14	1.02841202694	1.49857652795	right	visual	left	tactile	target	voice	346.562363789	FALSE	FALSE	FALSE	FALSE	TRUE	0	FALSE	TRUE	TRUE
e17	2015	08	06	18	08	f	20	r	14.047536056	3	15	1.03862516803	1.31684646471	left	visual	left	tactile	target	voice	NA	TRUE	FALSE	FALSE	FALSE	TRUE	0	FALSE	FALSE	FALSE
e17	2015	08	06	18	08	f	20	r	14.047536056	3	16	1.35737425706	1.00026454446	left	visual	left	visual	target	voice	443.610987277	FALSE	FALSE	FALSE	FALSE	TRUE	0	FALSE	FALSE	TRUE
e17	2015	08	06	18	08	f	20	r	14.047536056	3	17	0.723681439064	0.657599565178	right	visual	right	tactile	target	voice	497.152502532	FALSE	FALSE	FALSE	FALSE	TRUE	0	FALSE	FALSE	TRUE
e17	2015	08	06	18	08	f	20	r	14.047536056	3	18	2.42805891996	0.739229789298	left	visual	right	visual	catch	NA	NA	FALSE	FALSE	FALSE	FALSE	FALSE	0	FALSE	FALSE	TRUE
e17	2015	08	06	18	08	f	20	r	14.047536056	3	19	0.991080623004	0.892343389275	left	tactile	left	tactile	target	voice	474.364824477	FALSE	FALSE	FALSE	FALSE	TRUE	0	FALSE	TRUE	TRUE
e17	2015	08	06	18	08	f	20	r	14.047536056	3	20	0.677461090963	1.05174996265	left	tactile	left	visual	target	voice	442.285121069	FALSE	FALSE	FALSE	FALSE	TRUE	0	FALSE	FALSE	TRUE
e17	2015	08	06	18	08	f	20	r	14.047536056	3	21	0.716562209069	1.27774875408	left	tactile	right	visual	target	voice	424.528740696	FALSE	FALSE	FALSE	FALSE	TRUE	0	FALSE	TRUE	TRUE
e17	2015	08	06	18	08	f	20	r	14.047536056	3	22	1.11223095597	1.31842120678	left	tactile	right	visual	target	voice	296.805927879	FALSE	FALSE	FALSE	FALSE	TRUE	0	FALSE	FALSE	TRUE
e17	2015	08	06	18	08	f	20	r	14.047536056	3	23	1.41612871003	1.10364509181	left	tactile	left	visual	target	voice	NA	TRUE	FALSE	FALSE	TRUE	TRUE	0	TRUE	TRUE	FALSE
e17	2015	08	06	18	08	f	20	r	14.047536056	3	24	0.680635310942	1.22523815739	left	tactile	right	tactile	target	voice	257.69348524	FALSE	FALSE	FALSE	FALSE	TRUE	0	FALSE	FALSE	TRUE
e17	2015	08	06	18	08	f	20	r	14.047536056	3	25	0.884881396894	0.643443818094	left	tactile	left	tactile	target	voice	705.342627596	FALSE	FALSE	FALSE	FALSE	TRUE	0	FALSE	FALSE	TRUE
e17	2015	08	06	18	08	f	20	r	14.047536056	3	26	0.998785162927	0.652409727418	right	visual	right	tactile	target	voice	480.58580223	FALSE	FALSE	FALSE	FALSE	TRUE	0	FALSE	TRUE	TRUE
e17	2015	08	06	18	08	f	20	r	14.047536056	3	27	0.996209267993	1.20448831596	right	tactile	right	tactile	target	NA	NA	FALSE	FALSE	FALSE	FALSE	TRUE	0	FALSE	FALSE	TRUE
e17	2015	08	06	18	08	f	20	r	14.047536056	3	28	4.79384248401	1.29014630442	right	tactile	left	tactile	target	voice	NA	TRUE	FALSE	FALSE	FALSE	FALSE	0	FALSE	FALSE	FALSE
e17	2015	08	06	18	08	f	20	r	14.047536056	3	29	1.57213090698	0.783214401436	right	visual	left	tactile	target	voice	300.107086194	FALSE	FALSE	FALSE	FALSE	FALSE	0	FALSE	FALSE	TRUE
e17	2015	08	06	18	08	f	20	r	14.047536056	3	30	0.829726554104	0.69450370546	left	visual	right	visual	target	voice	593.152154237	FALSE	FALSE	FALSE	FALSE	TRUE	0	FALSE	TRUE	TRUE
e17	2015	08	06	18	08	f	20	r	14.047536056	3	31	0.729480940034	0.839323216148	left	visual	right	tactile	target	voice	256.466885679	FALSE	FALSE	FALSE	FALSE	TRUE	0	FALSE	FALSE	TRUE
e17	2015	08	06	18	08	f	20	r	14.047536056	3	32	0.525546213961	0.715769088583	right	tactile	left	tactile	target	voice	NA	TRUE	FALSE	FALSE	FALSE	FALSE	0	FALSE	FALSE	FALSE
e17	2015	08	06	18	08	f	20	r	14.047536056	3	33	1.53000380599	1.08247975631	right	tactile	right	tactile	target	voice	671.908270451	FALSE	FALSE	FALSE	FALSE	TRUE	0	FALSE	FALSE	TRUE
e17	2015	08	06	18	08	f	20	r	14.047536056	3	34	0.580010453938	1.2552628284	left	visual	right	tactile	target	voice	NA	TRUE	FALSE	FALSE	FALSE	TRUE	0	FALSE	FALSE	FALSE
e17	2015	08	06	18	08	f	20	r	14.047536056	3	35	2.64364368503	0.741788050002	left	visual	left	visual	target	voice	580.769764725	FALSE	FALSE	FALSE	FALSE	TRUE	0	FALSE	TRUE	TRUE
e17	2015	08	06	18	08	f	20	r	14.047536056	3	36	0.811546366895	1.14681097028	left	tactile	left	tactile	target	voice	439.986534417	FALSE	FALSE	FALSE	FALSE	TRUE	0	FALSE	FALSE	TRUE
e17	2015	08	06	18	08	f	20	r	14.047536056	3	37	2.287424398	0.801398676862	right	visual	right	tactile	catch	NA	NA	FALSE	FALSE	FALSE	FALSE	FALSE	0	FALSE	FALSE	TRUE
e17	2015	08	06	18	08	f	20	r	14.047536056	3	38	1.23747542198	1.16372883287	right	tactile	left	visual	target	voice	375.685999868	FALSE	FALSE	FALSE	FALSE	TRUE	0	FALSE	FALSE	TRUE
e17	2015	08	06	18	08	f	20	r	14.047536056	3	39	0.68243569904	1.10915163544	left	visual	right	tactile	target	voice	NA	TRUE	FALSE	FALSE	FALSE	TRUE	0	FALSE	FALSE	FALSE
e17	2015	08	06	18	08	f	20	r	14.047536056	3	40	1.28311949107	0.755456284821	right	visual	left	tactile	target	voice	444.143025903	FALSE	FALSE	FALSE	FALSE	FALSE	0	FALSE	FALSE	TRUE
e17	2015	08	06	18	08	f	20	r	2.81693877897	3	41	1.65568246902	1.01929006921	right	tactile	left	tactile	target	NA	NA	FALSE	FALSE	FALSE	FALSE	TRUE	0	FALSE	TRUE	TRUE
e17	2015	08	06	18	08	f	20	r	2.81693877897	3	42	0.410078150104	1.37699446211	left	visual	right	visual	target	voice	302.653006511	FALSE	FALSE	FALSE	FALSE	TRUE	0	FALSE	FALSE	TRUE
e17	2015	08	06	18	08	f	20	r	2.81693877897	3	43	0.693739206064	1.41437765806	left	tactile	left	tactile	target	voice	511.027147644	FALSE	FALSE	FALSE	FALSE	TRUE	0	FALSE	FALSE	TRUE
e17	2015	08	06	18	08	f	20	r	2.81693877897	3	44	0.409137343988	0.907586191252	right	visual	right	tactile	target	voice	465.869774576	FALSE	FALSE	FALSE	FALSE	TRUE	0	FALSE	TRUE	TRUE
e17	2015	08	06	18	08	f	20	r	2.81693877897	3	45	0.574960486963	0.885197181585	right	visual	left	visual	target	voice	442.750428105	FALSE	FALSE	FALSE	FALSE	TRUE	0	FALSE	FALSE	TRUE
e17	2015	08	06	18	08	f	20	r	2.81693877897	3	46	0.602821256034	0.801071555431	right	visual	left	visual	target	voice	414.504519198	FALSE	FALSE	FALSE	FALSE	TRUE	0	FALSE	FALSE	TRUE
e17	2015	08	06	18	08	f	20	r	2.81693877897	3	47	0.576862531016	0.959655265447	left	visual	left	tactile	target	NA	NA	FALSE	FALSE	FALSE	FALSE	TRUE	0	FALSE	FALSE	TRUE
e17	2015	08	06	18	08	f	20	r	2.81693877897	3	48	0.869237864972	0.584673025905	left	visual	left	visual	target	voice	648.637143779	FALSE	FALSE	FALSE	FALSE	TRUE	0	FALSE	FALSE	TRUE
e17	2015	08	06	18	08	f	20	r	2.81693877897	3	49	0.433494835976	0.893992368179	left	tactile	right	visual	target	voice	487.845271593	FALSE	FALSE	FALSE	FALSE	TRUE	0	FALSE	FALSE	TRUE
e17	2015	08	06	18	08	f	20	r	2.81693877897	3	50	0.401367702987	1.09773398728	right	visual	right	visual	target	voice	414.939714479	FALSE	FALSE	FALSE	FALSE	TRUE	0	FALSE	FALSE	TRUE
e17	2015	08	06	18	08	f	20	r	2.81693877897	3	51	0.396388527006	1.33923477537	left	visual	left	visual	target	voice	NA	TRUE	FALSE	FALSE	FALSE	TRUE	0	FALSE	FALSE	FALSE
e17	2015	08	06	18	08	f	20	r	2.81693877897	3	52	1.05828467093	1.00989795507	left	tactile	right	visual	target	voice	567.574776593	FALSE	FALSE	FALSE	FALSE	FALSE	0	FALSE	FALSE	TRUE
e17	2015	08	06	18	08	f	20	r	2.81693877897	3	53	0.423901271075	0.984740535347	left	tactile	right	visual	catch	NA	NA	FALSE	FALSE	FALSE	FALSE	TRUE	0	FALSE	FALSE	TRUE
e17	2015	08	06	18	08	f	20	r	2.81693877897	3	54	0.471735171042	0.987585361694	left	visual	left	tactile	target	voice	400.377527927	FALSE	FALSE	FALSE	FALSE	TRUE	0	FALSE	FALSE	TRUE
e17	2015	08	06	18	08	f	20	r	2.81693877897	3	55	1.92605186603	1.23841530584	left	visual	left	tactile	target	voice	514.333485859	FALSE	FALSE	FALSE	FALSE	TRUE	0	FALSE	FALSE	TRUE
e17	2015	08	06	18	08	f	20	r	2.81693877897	3	56	0.899678652058	1.36681683566	right	tactile	right	visual	target	voice	502.66960403	FALSE	FALSE	FALSE	FALSE	TRUE	0	FALSE	FALSE	TRUE
e17	2015	08	06	18	08	f	20	r	2.81693877897	3	57	0.61372442299	1.16981325215	left	tactile	left	tactile	target	voice	600.830994546	FALSE	FALSE	FALSE	FALSE	TRUE	0	FALSE	TRUE	TRUE
e17	2015	08	06	18	08	f	20	r	2.81693877897	3	58	0.568879773957	0.991981277155	right	visual	left	tactile	target	voice	620.64049358	FALSE	FALSE	FALSE	FALSE	TRUE	0	FALSE	FALSE	TRUE
e17	2015	08	06	18	08	f	20	r	2.81693877897	3	59	0.564669477986	0.621757941652	right	tactile	right	visual	target	voice	NA	TRUE	FALSE	FALSE	FALSE	TRUE	0	FALSE	FALSE	FALSE
e17	2015	08	06	18	08	f	20	r	2.81693877897	3	60	1.62210069306	1.09400218852	right	visual	left	tactile	catch	NA	NA	FALSE	FALSE	FALSE	FALSE	TRUE	0	FALSE	FALSE	TRUE
e17	2015	08	06	18	08	f	20	r	2.81693877897	3	61	0.666443821974	1.13227425126	left	tactile	right	tactile	target	voice	231.589368428	FALSE	FALSE	FALSE	FALSE	TRUE	0	FALSE	TRUE	TRUE
e17	2015	08	06	18	08	f	20	r	2.81693877897	3	62	0.550429039053	1.46864916071	left	visual	right	visual	target	voice	432.321207016	FALSE	FALSE	FALSE	FALSE	TRUE	0	FALSE	FALSE	TRUE
e17	2015	08	06	18	08	f	20	r	2.81693877897	3	63	0.401782126981	0.673859179291	right	tactile	right	visual	target	voice	572.875868529	FALSE	FALSE	FALSE	FALSE	TRUE	0	FALSE	FALSE	TRUE
e17	2015	08	06	18	08	f	20	r	2.81693877897	3	64	0.433828517911	1.47047256149	left	tactile	left	tactile	catch	NA	NA	FALSE	FALSE	FALSE	FALSE	TRUE	0	FALSE	FALSE	TRUE
e17	2015	08	06	18	08	f	20	r	2.81693877897	3	65	0.646615025005	1.10268095414	left	visual	right	visual	target	voice	391.906846664	FALSE	FALSE	FALSE	TRUE	TRUE	0	FALSE	FALSE	TRUE
e17	2015	08	06	18	08	f	20	r	2.81693877897	3	66	0.404257067945	1.19518405886	right	visual	right	tactile	target	voice	350.820362801	FALSE	FALSE	FALSE	FALSE	TRUE	0	FALSE	TRUE	TRUE
e17	2015	08	06	18	08	f	20	r	2.81693877897	3	67	0.405077498988	0.671306135591	left	tactile	right	visual	target	voice	394.655694137	FALSE	FALSE	FALSE	FALSE	TRUE	0	FALSE	FALSE	TRUE
e17	2015	08	06	18	08	f	20	r	2.81693877897	3	68	0.517704863916	1.28537372505	left	tactile	left	visual	target	voice	465.534159681	FALSE	FALSE	FALSE	FALSE	TRUE	0	FALSE	FALSE	TRUE
e17	2015	08	06	18	08	f	20	r	2.81693877897	3	69	0.593952605035	0.592692466412	left	tactile	left	visual	catch	NA	NA	FALSE	FALSE	FALSE	FALSE	TRUE	0	FALSE	FALSE	TRUE
e17	2015	08	06	18	08	f	20	r	2.81693877897	3	70	1.18549019296	1.09569255776	right	visual	right	tactile	target	voice	389.085674891	FALSE	FALSE	FALSE	FALSE	TRUE	0	FALSE	FALSE	TRUE
e17	2015	08	06	18	08	f	20	r	2.81693877897	3	71	0.463315780973	1.24461161672	left	tactile	right	tactile	target	voice	268.823063001	FALSE	FALSE	FALSE	TRUE	TRUE	0	FALSE	TRUE	TRUE
e17	2015	08	06	18	08	f	20	r	2.81693877897	3	72	0.40457499295	0.813289196874	left	visual	right	tactile	target	voice	243.462166865	FALSE	FALSE	FALSE	FALSE	TRUE	0	FALSE	FALSE	TRUE
e17	2015	08	06	18	08	f	20	r	2.81693877897	3	73	0.403672605054	1.28462738328	left	tactile	right	visual	target	voice	759.967055405	FALSE	FALSE	FALSE	FALSE	TRUE	0	FALSE	FALSE	TRUE
e17	2015	08	06	18	08	f	20	r	2.81693877897	3	74	0.412824927014	1.04648031232	right	visual	left	tactile	target	voice	332.197546377	FALSE	FALSE	FALSE	FALSE	TRUE	0	FALSE	FALSE	TRUE
e17	2015	08	06	18	08	f	20	r	2.81693877897	3	75	0.475775522995	0.754048121114	left	visual	left	visual	catch	NA	NA	FALSE	FALSE	FALSE	FALSE	TRUE	0	FALSE	FALSE	TRUE
e17	2015	08	06	18	08	f	20	r	2.81693877897	3	76	1.07323301607	0.575678949238	right	visual	left	tactile	target	voice	249.649504432	FALSE	FALSE	FALSE	TRUE	TRUE	0	FALSE	TRUE	TRUE
e17	2015	08	06	18	08	f	20	r	2.81693877897	3	77	0.450315349037	1.23957565746	left	tactile	left	tactile	target	voice	413.969192305	FALSE	FALSE	FALSE	FALSE	TRUE	0	FALSE	FALSE	TRUE
e17	2015	08	06	18	08	f	20	r	2.81693877897	3	78	0.418845995096	1.38459687777	right	tactile	right	tactile	target	voice	439.118297887	FALSE	FALSE	FALSE	FALSE	TRUE	0	FALSE	FALSE	TRUE
e17	2015	08	06	18	08	f	20	r	2.81693877897	3	79	6.06519318803	0.828078161664	right	tactile	right	visual	target	voice	358.255026978	FALSE	FALSE	FALSE	FALSE	FALSE	0	FALSE	FALSE	TRUE
e17	2015	08	06	18	08	f	20	r	2.81693877897	3	80	5.63640004501	1.41417380785	left	tactile	right	visual	target	voice	404.032382998	FALSE	FALSE	FALSE	FALSE	TRUE	0	FALSE	TRUE	TRUE
e17	2015	08	06	18	08	f	20	r	2.98315943801	3	81	1.53091550898	1.00465306425	right	visual	left	visual	target	voice	397.628991399	FALSE	FALSE	FALSE	FALSE	TRUE	0	FALSE	TRUE	TRUE
e17	2015	08	06	18	08	f	20	r	2.98315943801	3	82	0.549021668034	1.2026185056	left	tactile	left	tactile	target	voice	619.034652249	FALSE	FALSE	FALSE	FALSE	TRUE	0	FALSE	FALSE	TRUE
e17	2015	08	06	18	08	f	20	r	2.98315943801	3	83	0.469724608934	0.550423679889	left	visual	left	tactile	catch	NA	NA	FALSE	FALSE	FALSE	FALSE	TRUE	0	FALSE	FALSE	TRUE
e17	2015	08	06	18	08	f	20	r	2.98315943801	3	84	0.888215407962	0.845703700613	right	visual	left	visual	target	voice	325.232022093	FALSE	FALSE	FALSE	FALSE	TRUE	0	FALSE	TRUE	TRUE
e17	2015	08	06	18	08	f	20	r	2.98315943801	3	85	0.52049966401	1.08344558129	left	tactile	right	tactile	target	voice	383.900500368	FALSE	FALSE	FALSE	FALSE	TRUE	0	FALSE	FALSE	TRUE
e17	2015	08	06	18	08	f	20	r	2.98315943801	3	86	0.651302120998	0.940945763594	left	visual	left	tactile	target	voice	799.027775181	FALSE	FALSE	FALSE	TRUE	TRUE	0	TRUE	TRUE	TRUE
e17	2015	08	06	18	08	f	20	r	2.98315943801	3	87	0.529238409945	0.63499969825	right	tactile	left	tactile	catch	NA	NA	FALSE	FALSE	FALSE	FALSE	TRUE	0	FALSE	TRUE	TRUE
e17	2015	08	06	18	08	f	20	r	2.98315943801	3	88	3.68653932097	0.915673682043	left	visual	left	tactile	target	voice	NA	TRUE	FALSE	FALSE	FALSE	FALSE	0	FALSE	FALSE	FALSE
e17	2015	08	06	18	08	f	20	r	2.98315943801	3	89	0.706314345007	1.45410173839	left	tactile	left	visual	target	voice	682.95135838	FALSE	FALSE	FALSE	FALSE	TRUE	0	FALSE	FALSE	TRUE
e17	2015	08	06	18	08	f	20	r	2.98315943801	3	90	0.496091938927	1.25885525909	right	tactile	left	visual	catch	NA	NA	FALSE	FALSE	FALSE	FALSE	TRUE	0	FALSE	FALSE	TRUE
e17	2015	08	06	18	08	f	20	r	2.98315943801	3	91	0.426002511987	0.964573669662	right	tactile	left	visual	target	voice	525.791767053	FALSE	FALSE	FALSE	FALSE	TRUE	0	FALSE	FALSE	TRUE
e17	2015	08	06	18	08	f	20	r	2.98315943801	3	92	0.72987018805	0.729525460464	left	tactile	left	visual	target	voice	NA	TRUE	FALSE	FALSE	FALSE	TRUE	0	FALSE	TRUE	FALSE
e17	2015	08	06	18	08	f	20	r	2.98315943801	3	93	0.903712107916	1.06693622926	left	visual	left	visual	target	voice	411.172695458	FALSE	FALSE	FALSE	FALSE	FALSE	0	FALSE	FALSE	TRUE
e17	2015	08	06	18	08	f	20	r	2.98315943801	3	94	0.597192283021	0.70611199997	left	visual	right	visual	target	voice	492.543371744	FALSE	FALSE	FALSE	FALSE	TRUE	0	FALSE	FALSE	TRUE
e17	2015	08	06	18	08	f	20	r	2.98315943801	3	95	0.733241120935	1.32798572052	right	visual	right	tactile	target	voice	791.071853251	FALSE	FALSE	FALSE	FALSE	TRUE	0	FALSE	FALSE	TRUE
e17	2015	08	06	18	08	f	20	r	2.98315943801	3	96	0.514602985	1.12562619662	left	tactile	left	visual	target	voice	515.781728202	FALSE	FALSE	FALSE	FALSE	TRUE	0	FALSE	FALSE	TRUE
e17	2015	08	06	18	08	f	20	r	2.98315943801	3	97	0.555472469074	1.07986865654	left	visual	left	tactile	target	voice	228.234249167	FALSE	FALSE	FALSE	FALSE	TRUE	0	FALSE	FALSE	TRUE
e17	2015	08	06	18	08	f	20	r	2.98315943801	3	98	0.472006258089	0.78995021522	left	visual	right	tactile	target	voice	NA	TRUE	FALSE	FALSE	FALSE	FALSE	0	FALSE	FALSE	FALSE
e17	2015	08	06	18	08	f	20	r	2.98315943801	3	99	1.003719992	1.37217116697	left	visual	left	tactile	target	voice	290.453917813	FALSE	FALSE	FALSE	FALSE	TRUE	0	FALSE	FALSE	TRUE
e17	2015	08	06	18	08	f	20	r	2.98315943801	3	100	0.635343551054	0.761653697689	left	tactile	left	visual	target	voice	516.942090122	FALSE	FALSE	FALSE	FALSE	TRUE	0	FALSE	FALSE	TRUE
e17	2015	08	06	18	08	f	20	r	2.98315943801	3	101	0.558527691988	1.02309876316	left	visual	right	tactile	catch	NA	NA	FALSE	FALSE	FALSE	FALSE	TRUE	0	FALSE	FALSE	TRUE
e17	2015	08	06	18	08	f	20	r	2.98315943801	3	102	0.767075243988	1.16382164176	right	tactile	right	visual	target	voice	371.592493961	FALSE	FALSE	FALSE	FALSE	TRUE	0	FALSE	FALSE	TRUE
e17	2015	08	06	18	08	f	20	r	2.98315943801	3	103	0.604588396032	1.07946189645	left	visual	left	visual	target	voice	589.081128244	FALSE	FALSE	FALSE	TRUE	TRUE	0	FALSE	FALSE	TRUE
e17	2015	08	06	18	08	f	20	r	2.98315943801	3	104	0.54396047804	1.27598376307	left	visual	right	tactile	target	voice	363.620401709	FALSE	FALSE	FALSE	FALSE	TRUE	0	FALSE	FALSE	TRUE
e17	2015	08	06	18	08	f	20	r	2.98315943801	3	105	0.609650883009	1.04404681387	right	visual	left	visual	target	voice	547.522135894	FALSE	FALSE	FALSE	FALSE	TRUE	0	FALSE	FALSE	TRUE
e17	2015	08	06	18	08	f	20	r	2.98315943801	3	106	0.691943107988	1.48718888742	right	visual	left	visual	target	voice	384.400537354	FALSE	FALSE	FALSE	FALSE	TRUE	0	FALSE	FALSE	TRUE
e17	2015	08	06	18	08	f	20	r	2.98315943801	3	107	4.68156809208	1.32189761676	left	visual	right	tactile	target	voice	332.937553991	FALSE	FALSE	FALSE	FALSE	TRUE	0	FALSE	TRUE	TRUE
e17	2015	08	06	18	08	f	20	r	2.98315943801	3	108	0.723555203993	0.505855499398	left	tactile	right	tactile	target	voice	644.601010368	FALSE	FALSE	FALSE	FALSE	TRUE	0	FALSE	TRUE	TRUE
e17	2015	08	06	18	08	f	20	r	2.98315943801	3	109	0.70154528704	0.785630232525	right	tactile	right	visual	target	voice	578.876232263	FALSE	FALSE	FALSE	FALSE	TRUE	0	FALSE	TRUE	TRUE
e17	2015	08	06	18	08	f	20	r	2.98315943801	3	110	0.553392179077	0.764692543654	right	visual	right	visual	target	voice	622.976360959	FALSE	FALSE	FALSE	FALSE	TRUE	0	FALSE	TRUE	TRUE
e17	2015	08	06	18	08	f	20	r	2.98315943801	3	111	0.590861068922	0.754036047314	right	tactile	left	tactile	target	voice	312.17928743	FALSE	FALSE	FALSE	FALSE	TRUE	0	FALSE	TRUE	TRUE
e17	2015	08	06	18	08	f	20	r	2.98315943801	3	112	0.556943363044	0.6848388297	right	tactile	left	tactile	target	voice	255.310051027	FALSE	FALSE	FALSE	FALSE	TRUE	0	FALSE	TRUE	TRUE
e17	2015	08	06	18	08	f	20	r	2.98315943801	3	113	0.486050875974	0.621719946465	right	visual	right	visual	catch	NA	NA	FALSE	FALSE	FALSE	FALSE	TRUE	0	FALSE	FALSE	TRUE
e17	2015	08	06	18	08	f	20	r	2.98315943801	3	114	0.551234903978	0.672301513794	right	visual	left	tactile	target	voice	320.777964895	FALSE	FALSE	FALSE	FALSE	TRUE	0	FALSE	FALSE	TRUE
e17	2015	08	06	18	08	f	20	r	2.98315943801	3	115	0.983432193054	1.05987561339	right	visual	right	visual	target	voice	575.264166342	FALSE	FALSE	FALSE	FALSE	TRUE	0	FALSE	FALSE	TRUE
e17	2015	08	06	18	08	f	20	r	2.98315943801	3	116	0.539499318111	0.842624410722	right	visual	right	visual	target	voice	513.929377892	FALSE	FALSE	FALSE	TRUE	TRUE	0	FALSE	FALSE	TRUE
e17	2015	08	06	18	08	f	20	r	2.98315943801	3	117	0.593118504039	0.867494007958	right	visual	right	visual	target	voice	427.139709704	FALSE	FALSE	FALSE	FALSE	TRUE	0	FALSE	FALSE	TRUE
e17	2015	08	06	18	08	f	20	r	2.98315943801	3	118	0.584158102982	1.28527020132	left	tactile	right	tactile	target	voice	360.950182425	FALSE	FALSE	FALSE	FALSE	TRUE	0	FALSE	FALSE	TRUE
e17	2015	08	06	18	08	f	20	r	2.98315943801	3	119	4.129649173	1.40878491402	right	tactile	right	tactile	target	voice	NA	TRUE	FALSE	FALSE	FALSE	FALSE	0	FALSE	FALSE	FALSE
e17	2015	08	06	18	08	f	20	r	2.98315943801	3	120	0.662982032984	1.18127630768	left	tactile	right	tactile	target	voice	354.80477009	FALSE	FALSE	FALSE	FALSE	TRUE	0	FALSE	TRUE	TRUE
e17	2015	08	06	18	08	f	20	r	3.627929462	3	121	1.19079168001	1.42006730193	right	visual	right	tactile	target	voice	386.946612853	FALSE	FALSE	FALSE	FALSE	TRUE	0	FALSE	TRUE	TRUE
e17	2015	08	06	18	08	f	20	r	3.627929462	3	122	0.554417930078	0.78806668209	right	tactile	right	visual	catch	NA	NA	FALSE	FALSE	FALSE	FALSE	TRUE	0	FALSE	FALSE	TRUE
e17	2015	08	06	18	08	f	20	r	3.627929462	3	123	0.513650481007	0.696775591866	left	visual	left	visual	target	voice	389.507523854	FALSE	FALSE	FALSE	FALSE	TRUE	0	FALSE	FALSE	TRUE
e17	2015	08	06	18	08	f	20	r	3.627929462	3	124	0.546236043097	0.926310980686	right	visual	left	tactile	target	voice	308.340959949	FALSE	FALSE	FALSE	FALSE	TRUE	0	FALSE	FALSE	TRUE
e17	2015	08	06	18	08	f	20	r	3.627929462	3	125	0.558629330015	1.4455225576	right	tactile	right	tactile	target	voice	214.84542219	FALSE	FALSE	FALSE	FALSE	TRUE	0	FALSE	FALSE	TRUE
e17	2015	08	06	18	08	f	20	r	3.627929462	3	126	0.395856630988	1.35627825749	right	tactile	left	visual	target	voice	NA	TRUE	FALSE	FALSE	FALSE	FALSE	0	FALSE	FALSE	FALSE
e17	2015	08	06	18	08	f	20	r	3.627929462	3	127	1.11352215102	1.10346643136	right	tactile	left	visual	target	voice	NA	TRUE	FALSE	FALSE	FALSE	FALSE	0	FALSE	FALSE	FALSE
e17	2015	08	06	18	08	f	20	r	3.627929462	3	128	1.87384996901	1.26548412538	right	visual	right	tactile	target	voice	238.049696316	FALSE	FALSE	FALSE	FALSE	TRUE	0	FALSE	TRUE	TRUE
e17	2015	08	06	18	08	f	20	r	3.627929462	3	129	0.522334143054	0.528773285301	left	visual	left	visual	target	voice	432.500556344	FALSE	FALSE	FALSE	TRUE	TRUE	0	FALSE	FALSE	TRUE
e17	2015	08	06	18	08	f	20	r	3.627929462	3	130	4.02138677891	0.606846515809	left	visual	right	tactile	target	voice	397.054929985	FALSE	FALSE	FALSE	FALSE	FALSE	0	FALSE	FALSE	TRUE
e17	2015	08	06	18	08	f	20	r	3.627929462	3	131	0.460159164038	1.33871332367	left	tactile	left	visual	target	voice	234.575047041	FALSE	FALSE	FALSE	FALSE	TRUE	0	FALSE	FALSE	TRUE
e17	2015	08	06	18	08	f	20	r	3.627929462	3	132	0.470705132	0.8445866821	left	visual	left	tactile	target	voice	167.698809528	FALSE	FALSE	FALSE	FALSE	TRUE	0	FALSE	FALSE	TRUE
e17	2015	08	06	18	08	f	20	r	3.627929462	3	133	0.502536425949	0.662301564925	right	visual	right	visual	target	voice	273.070449824	FALSE	FALSE	FALSE	FALSE	TRUE	0	FALSE	FALSE	TRUE
e17	2015	08	06	18	08	f	20	r	3.627929462	3	134	0.445372716058	1.11574909162	left	visual	right	visual	target	voice	NA	TRUE	FALSE	FALSE	FALSE	TRUE	0	FALSE	FALSE	FALSE
e17	2015	08	06	18	08	f	20	r	3.627929462	3	135	0.571734266938	0.506417702039	right	tactile	right	tactile	target	voice	432.554626721	FALSE	FALSE	FALSE	FALSE	TRUE	0	FALSE	TRUE	TRUE
e17	2015	08	06	18	08	f	20	r	3.627929462	3	136	0.446488120942	0.958750923055	right	tactile	right	tactile	target	voice	107.70699766	FALSE	FALSE	FALSE	FALSE	TRUE	0	FALSE	FALSE	TRUE
e17	2015	08	06	18	08	f	20	r	3.627929462	3	137	0.407335054944	1.46078722392	right	tactile	left	tactile	target	voice	590.437422739	FALSE	FALSE	FALSE	FALSE	TRUE	0	FALSE	FALSE	TRUE
e17	2015	08	06	18	08	f	20	r	3.627929462	3	138	0.412341104005	0.651865618196	left	tactile	left	tactile	target	voice	141.000822536	FALSE	FALSE	FALSE	FALSE	TRUE	0	FALSE	FALSE	TRUE
e17	2015	08	06	18	08	f	20	r	3.627929462	3	139	0.436217715032	1.21944029296	left	tactile	right	tactile	catch	voice	25.2734217793	FALSE	FALSE	FALSE	FALSE	TRUE	0	FALSE	FALSE	TRUE
e17	2015	08	06	18	08	f	20	r	3.627929462	3	140	0.446406978066	0.604733890896	right	visual	right	visual	target	voice	289.378180867	FALSE	FALSE	FALSE	FALSE	FALSE	0	FALSE	FALSE	TRUE
e17	2015	08	06	18	08	f	20	r	3.627929462	3	141	3.92926214996	0.713691967496	right	tactile	right	visual	target	voice	240.250598174	FALSE	FALSE	FALSE	FALSE	TRUE	0	FALSE	FALSE	TRUE
e17	2015	08	06	18	08	f	20	r	3.627929462	3	142	0.437188061071	1.36497786628	left	tactile	right	tactile	target	voice	NA	TRUE	FALSE	FALSE	FALSE	TRUE	0	FALSE	FALSE	FALSE
e17	2015	08	06	18	08	f	20	r	3.627929462	3	143	2.80405343103	1.34005738902	right	visual	left	visual	target	voice	315.099573694	FALSE	FALSE	FALSE	FALSE	TRUE	0	FALSE	TRUE	TRUE
e17	2015	08	06	18	08	f	20	r	3.627929462	3	144	0.896523740957	1.21259443839	right	tactile	left	tactile	target	voice	406.208290369	FALSE	FALSE	FALSE	FALSE	TRUE	0	FALSE	FALSE	TRUE
e17	2015	08	06	18	08	f	20	r	3.627929462	3	145	0.67887750105	0.616670730839	right	visual	right	visual	target	voice	464.367188863	FALSE	FALSE	FALSE	TRUE	TRUE	0	FALSE	FALSE	TRUE
e17	2015	08	06	18	08	f	20	r	3.627929462	3	146	0.586272565066	1.10529998282	right	tactile	left	visual	target	voice	495.49975188	FALSE	FALSE	FALSE	TRUE	TRUE	0	FALSE	FALSE	TRUE
e17	2015	08	06	18	08	f	20	r	3.627929462	3	147	0.582565803081	0.82563880198	right	tactile	right	tactile	target	voice	626.336424728	FALSE	FALSE	FALSE	TRUE	TRUE	0	FALSE	TRUE	TRUE
e17	2015	08	06	18	08	f	20	r	3.627929462	3	148	0.513582063955	1.41180915017	left	visual	right	visual	target	voice	327.19981065	FALSE	FALSE	FALSE	TRUE	TRUE	0	FALSE	FALSE	TRUE
e17	2015	08	06	18	08	f	20	r	3.627929462	3	149	0.398868951015	1.23539866003	right	tactile	left	visual	target	voice	173.024495714	FALSE	FALSE	FALSE	FALSE	TRUE	0	FALSE	TRUE	TRUE
e17	2015	08	06	18	08	f	20	r	3.627929462	3	150	0.62372096302	1.02673287836	left	visual	right	tactile	target	voice	240.965131321	FALSE	FALSE	FALSE	FALSE	FALSE	0	FALSE	FALSE	TRUE
e17	2015	08	06	18	08	f	20	r	3.627929462	3	151	0.753508231021	1.36640573731	left	visual	left	visual	target	voice	277.584683266	FALSE	FALSE	FALSE	FALSE	TRUE	0	FALSE	FALSE	TRUE
e17	2015	08	06	18	08	f	20	r	3.627929462	3	152	0.459963054978	1.46239655801	left	visual	right	visual	target	voice	253.32072773	FALSE	FALSE	FALSE	FALSE	TRUE	0	FALSE	FALSE	TRUE
e17	2015	08	06	18	08	f	20	r	3.627929462	3	153	0.528992195032	0.642651117361	right	visual	left	tactile	target	voice	434.228966362	FALSE	FALSE	FALSE	FALSE	TRUE	0	FALSE	TRUE	TRUE
e17	2015	08	06	18	08	f	20	r	3.627929462	3	154	0.471152360085	1.46105623175	left	tactile	left	visual	target	voice	NA	TRUE	FALSE	FALSE	FALSE	TRUE	0	FALSE	FALSE	FALSE
e17	2015	08	06	18	08	f	20	r	3.627929462	3	155	1.08205361199	0.883338762414	right	visual	left	visual	catch	voice	213.65739929	FALSE	FALSE	FALSE	TRUE	TRUE	0	FALSE	TRUE	TRUE
e17	2015	08	06	18	08	f	20	r	3.627929462	3	156	0.481852283003	0.985484926125	right	visual	left	visual	target	voice	224.29560055	FALSE	FALSE	FALSE	FALSE	TRUE	0	FALSE	TRUE	TRUE
e17	2015	08	06	18	08	f	20	r	3.627929462	3	157	0.474839280942	0.96318895725	right	tactile	left	visual	target	voice	449.929741444	FALSE	FALSE	FALSE	FALSE	FALSE	0	FALSE	FALSE	TRUE
e17	2015	08	06	18	08	f	20	r	3.627929462	3	158	0.440601418028	0.695773526513	right	tactile	left	visual	target	voice	385.989531176	FALSE	FALSE	FALSE	FALSE	TRUE	0	FALSE	TRUE	TRUE
e17	2015	08	06	18	08	f	20	r	3.627929462	3	159	0.599475841969	0.912142052004	right	visual	right	tactile	target	voice	370.670704753	FALSE	FALSE	FALSE	FALSE	TRUE	0	FALSE	TRUE	TRUE
e17	2015	08	06	18	08	f	20	r	3.627929462	3	160	0.522876150091	1.46217801603	left	visual	right	visual	target	voice	781.146516674	FALSE	FALSE	FALSE	FALSE	TRUE	0	FALSE	FALSE	TRUE
e17	2015	08	06	18	08	f	20	r	24.1013807299	4	1	0.581216742052	1.28058986302	right	visual	right	visual	catch	voice	NA	TRUE	FALSE	FALSE	FALSE	FALSE	0	FALSE	FALSE	FALSE
e17	2015	08	06	18	08	f	20	r	24.1013807299	4	2	0.722595546977	1.18597925018	left	visual	right	visual	target	voice	NA	TRUE	FALSE	FALSE	FALSE	TRUE	0	FALSE	FALSE	FALSE
e17	2015	08	06	18	08	f	20	r	24.1013807299	4	3	0.402080569998	1.12477839543	left	visual	left	visual	catch	NA	NA	FALSE	FALSE	FALSE	FALSE	TRUE	0	FALSE	TRUE	TRUE
e17	2015	08	06	18	08	f	20	r	24.1013807299	4	4	3.57570093602	1.48198824824	right	tactile	left	tactile	target	voice	410.173752578	FALSE	FALSE	FALSE	FALSE	TRUE	0	FALSE	FALSE	TRUE
e17	2015	08	06	18	08	f	20	r	24.1013807299	4	5	0.593240898917	1.46812882725	left	tactile	left	visual	target	voice	475.422777468	FALSE	FALSE	FALSE	FALSE	TRUE	0	FALSE	FALSE	TRUE
e17	2015	08	06	18	08	f	20	r	24.1013807299	4	6	0.439777586027	0.648973909355	right	tactile	left	visual	target	voice	158.327210345	FALSE	FALSE	FALSE	FALSE	TRUE	0	FALSE	TRUE	TRUE
e17	2015	08	06	18	08	f	20	r	24.1013807299	4	7	0.540758232004	0.639835323084	right	visual	left	tactile	target	voice	269.683464547	FALSE	FALSE	FALSE	FALSE	TRUE	0	FALSE	TRUE	TRUE
e17	2015	08	06	18	08	f	20	r	24.1013807299	4	8	0.507039346965	0.829867684686	left	tactile	left	tactile	target	voice	228.72002318	FALSE	FALSE	FALSE	FALSE	TRUE	0	FALSE	FALSE	TRUE
e17	2015	08	06	18	08	f	20	r	24.1013807299	4	9	0.405290080002	0.82805106115	right	tactile	right	tactile	target	voice	42.9205716355	FALSE	FALSE	FALSE	FALSE	TRUE	0	FALSE	TRUE	TRUE
e17	2015	08	06	18	08	f	20	r	24.1013807299	4	10	0.62254335999	1.46903991983	right	tactile	left	visual	target	voice	NA	TRUE	FALSE	FALSE	FALSE	TRUE	0	FALSE	FALSE	FALSE
e17	2015	08	06	18	08	f	20	r	24.1013807299	4	11	4.81800036109	1.32099824994	left	tactile	right	tactile	target	voice	294.045498827	FALSE	FALSE	FALSE	FALSE	TRUE	0	FALSE	FALSE	TRUE
e17	2015	08	06	18	08	f	20	r	24.1013807299	4	12	4.36450981698	0.793360013044	left	tactile	right	tactile	catch	NA	NA	FALSE	FALSE	FALSE	FALSE	FALSE	0	FALSE	FALSE	TRUE
e17	2015	08	06	18	08	f	20	r	24.1013807299	4	13	0.516328259022	1.1947578553	left	visual	left	tactile	target	voice	348.824017565	FALSE	FALSE	FALSE	FALSE	FALSE	0	FALSE	FALSE	TRUE
e17	2015	08	06	18	08	f	20	r	24.1013807299	4	14	0.463981768	0.749563669996	left	visual	left	tactile	target	voice	402.136789635	FALSE	FALSE	FALSE	FALSE	TRUE	0	FALSE	TRUE	TRUE
e17	2015	08	06	18	08	f	20	r	24.1013807299	4	15	5.87576155399	1.32318659685	right	tactile	right	visual	target	voice	363.294222858	FALSE	FALSE	FALSE	TRUE	TRUE	0	TRUE	TRUE	TRUE
e17	2015	08	06	18	08	f	20	r	24.1013807299	4	16	4.21608671604	0.939835162549	left	visual	left	visual	target	voice	NA	TRUE	FALSE	FALSE	FALSE	TRUE	0	FALSE	FALSE	FALSE
e17	2015	08	06	18	08	f	20	r	24.1013807299	4	17	1.12395288399	1.16882282201	left	tactile	right	visual	target	voice	487.704494735	FALSE	FALSE	FALSE	FALSE	TRUE	0	FALSE	TRUE	TRUE
e17	2015	08	06	18	08	f	20	r	24.1013807299	4	18	9.50504184503	0.779939583766	right	visual	left	visual	target	voice	367.269722978	FALSE	FALSE	FALSE	FALSE	TRUE	0	FALSE	FALSE	TRUE
e17	2015	08	06	18	08	f	20	r	24.1013807299	4	19	0.626642460003	0.728375559287	right	visual	left	tactile	target	voice	435.889185406	FALSE	FALSE	FALSE	FALSE	TRUE	0	FALSE	TRUE	TRUE
e17	2015	08	06	18	08	f	20	r	24.1013807299	4	20	0.638958859956	0.59286218387	left	visual	left	tactile	target	voice	494.194703759	FALSE	FALSE	FALSE	FALSE	TRUE	0	FALSE	FALSE	TRUE
e17	2015	08	06	18	08	f	20	r	24.1013807299	4	21	0.612401078921	1.08839792406	right	tactile	left	visual	target	voice	489.202715689	FALSE	FALSE	FALSE	FALSE	TRUE	0	FALSE	TRUE	TRUE
e17	2015	08	06	18	08	f	20	r	24.1013807299	4	22	0.5689521319	0.698149924326	right	tactile	right	tactile	target	voice	251.825950458	FALSE	FALSE	FALSE	FALSE	TRUE	0	FALSE	FALSE	TRUE
e17	2015	08	06	18	08	f	20	r	24.1013807299	4	23	5.55323424703	1.01056462663	right	visual	right	tactile	target	voice	279.233461013	FALSE	FALSE	FALSE	FALSE	TRUE	0	FALSE	TRUE	TRUE
e17	2015	08	06	18	08	f	20	r	24.1013807299	4	24	0.670589294983	0.942502054093	left	tactile	right	visual	target	voice	299.677652656	FALSE	FALSE	FALSE	FALSE	TRUE	0	FALSE	TRUE	TRUE
e17	2015	08	06	18	08	f	20	r	24.1013807299	4	25	0.564326673048	1.44461697959	right	visual	left	tactile	target	voice	NA	TRUE	FALSE	FALSE	FALSE	TRUE	0	FALSE	FALSE	FALSE
e17	2015	08	06	18	08	f	20	r	24.1013807299	4	26	0.659174478962	0.520608209003	left	visual	right	visual	target	voice	270.41136066	FALSE	FALSE	FALSE	FALSE	TRUE	0	FALSE	TRUE	TRUE
e17	2015	08	06	18	08	f	20	r	24.1013807299	4	27	0.514079279033	0.736095291229	left	tactile	left	tactile	target	voice	236.696276581	FALSE	FALSE	FALSE	FALSE	TRUE	0	FALSE	FALSE	TRUE
e17	2015	08	06	18	08	f	20	r	24.1013807299	4	28	0.688551404048	0.830032466225	right	visual	right	visual	target	voice	228.155626566	FALSE	FALSE	FALSE	FALSE	TRUE	0	FALSE	TRUE	TRUE
e17	2015	08	06	18	08	f	20	r	24.1013807299	4	29	0.550348474062	1.14854513839	left	visual	left	visual	target	voice	NA	TRUE	FALSE	FALSE	FALSE	TRUE	0	FALSE	FALSE	FALSE
e17	2015	08	06	18	08	f	20	r	24.1013807299	4	30	0.493298975052	0.768505583551	right	tactile	right	tactile	target	voice	359.873707173	FALSE	FALSE	FALSE	FALSE	TRUE	0	FALSE	TRUE	TRUE
e17	2015	08	06	18	08	f	20	r	24.1013807299	4	31	0.436566903023	0.831615088952	left	visual	right	tactile	target	voice	248.73111269	FALSE	FALSE	FALSE	FALSE	TRUE	0	FALSE	TRUE	TRUE
e17	2015	08	06	18	08	f	20	r	24.1013807299	4	32	0.530240193009	1.27670823839	left	tactile	left	tactile	target	voice	NA	TRUE	FALSE	FALSE	FALSE	TRUE	0	FALSE	FALSE	FALSE
e17	2015	08	06	18	08	f	20	r	24.1013807299	4	33	2.60014976305	0.61188237674	right	visual	left	tactile	catch	NA	NA	FALSE	FALSE	FALSE	FALSE	TRUE	0	FALSE	TRUE	TRUE
e17	2015	08	06	18	08	f	20	r	24.1013807299	4	34	0.784614669043	0.736036760384	left	visual	right	visual	target	voice	369.754705345	FALSE	FALSE	FALSE	FALSE	TRUE	0	FALSE	TRUE	TRUE
e17	2015	08	06	18	08	f	20	r	24.1013807299	4	35	0.595454247901	0.71653030052	right	tactile	right	visual	target	voice	393.924985197	FALSE	FALSE	FALSE	FALSE	TRUE	0	FALSE	TRUE	TRUE
e17	2015	08	06	18	08	f	20	r	24.1013807299	4	36	1.71464062505	1.46655014948	left	tactile	right	tactile	target	voice	381.188686239	FALSE	FALSE	FALSE	FALSE	TRUE	0	FALSE	TRUE	TRUE
e17	2015	08	06	18	08	f	20	r	24.1013807299	4	37	1.32537558698	0.588717735654	left	visual	left	tactile	target	voice	485.880723107	FALSE	FALSE	FALSE	FALSE	TRUE	0	FALSE	FALSE	TRUE
e17	2015	08	06	18	08	f	20	r	24.1013807299	4	38	0.574359964114	0.619799215819	right	visual	right	visual	target	voice	532.591467956	FALSE	FALSE	FALSE	FALSE	TRUE	0	FALSE	TRUE	TRUE
e17	2015	08	06	18	08	f	20	r	24.1013807299	4	39	1.05446110107	1.07345301402	right	tactile	right	tactile	catch	NA	NA	FALSE	FALSE	FALSE	FALSE	TRUE	0	FALSE	FALSE	TRUE
e17	2015	08	06	18	08	f	20	r	24.1013807299	4	40	5.07060768106	0.864277893594	right	visual	left	tactile	target	voice	451.005824143	FALSE	FALSE	FALSE	FALSE	TRUE	0	FALSE	TRUE	TRUE
e17	2015	08	06	18	08	f	20	r	3.11060310702	4	41	6.60853183805	0.647379137304	right	tactile	right	tactile	target	NA	NA	FALSE	FALSE	FALSE	FALSE	TRUE	0	FALSE	TRUE	TRUE
e17	2015	08	06	18	08	f	20	r	3.11060310702	4	42	0.963061738992	0.686807586544	right	tactile	right	visual	target	voice	334.454605123	FALSE	FALSE	FALSE	FALSE	TRUE	0	FALSE	TRUE	TRUE
e17	2015	08	06	18	08	f	20	r	3.11060310702	4	43	5.00563236803	0.580481814377	left	visual	left	visual	target	voice	564.469685312	FALSE	FALSE	FALSE	FALSE	TRUE	0	FALSE	FALSE	TRUE
e17	2015	08	06	18	08	f	20	r	3.11060310702	4	44	0.585106816958	0.697666812187	right	visual	right	tactile	catch	NA	NA	FALSE	FALSE	FALSE	FALSE	TRUE	0	FALSE	FALSE	TRUE
e17	2015	08	06	18	08	f	20	r	3.11060310702	4	45	0.438949642936	0.531450786724	right	tactile	right	visual	target	voice	292.09690995	FALSE	FALSE	FALSE	FALSE	TRUE	0	FALSE	FALSE	TRUE
e17	2015	08	06	18	08	f	20	r	3.11060310702	4	46	6.74211820599	1.18840823849	right	tactile	right	tactile	target	voice	420.58796424	FALSE	FALSE	FALSE	FALSE	TRUE	0	FALSE	TRUE	TRUE
e17	2015	08	06	18	08	f	20	r	3.11060310702	4	47	0.542740880046	0.612837419172	left	visual	left	visual	target	voice	663.995128591	FALSE	FALSE	FALSE	FALSE	TRUE	0	FALSE	TRUE	TRUE
e17	2015	08	06	18	08	f	20	r	3.11060310702	4	48	0.595782260993	0.763512695905	left	visual	left	tactile	target	voice	406.977804843	FALSE	FALSE	FALSE	FALSE	TRUE	0	FALSE	FALSE	TRUE
e17	2015	08	06	18	08	f	20	r	3.11060310702	4	49	0.521081021987	0.576310311948	left	visual	left	tactile	target	voice	330.888829776	FALSE	FALSE	FALSE	FALSE	TRUE	0	FALSE	TRUE	TRUE
e17	2015	08	06	18	08	f	20	r	3.11060310702	4	50	0.630950734951	1.02281001384	right	visual	left	tactile	target	voice	NA	TRUE	FALSE	FALSE	FALSE	TRUE	0	FALSE	FALSE	FALSE
e17	2015	08	06	18	08	f	20	r	3.11060310702	4	51	0.53492717992	0.718269477808	right	tactile	left	tactile	target	voice	212.425189791	FALSE	FALSE	FALSE	FALSE	TRUE	0	FALSE	TRUE	TRUE
e17	2015	08	06	18	08	f	20	r	3.11060310702	4	52	0.490185839008	0.58886535737	right	visual	left	visual	target	voice	420.299676363	FALSE	FALSE	FALSE	FALSE	TRUE	0	FALSE	FALSE	TRUE
e17	2015	08	06	18	08	f	20	r	3.11060310702	4	53	7.24917420989	1.22849744891	right	tactile	left	visual	target	voice	341.270538745	FALSE	FALSE	FALSE	FALSE	FALSE	0	FALSE	FALSE	TRUE
e17	2015	08	06	18	08	f	20	r	3.11060310702	4	54	0.584699181025	1.22749943657	left	visual	right	visual	target	voice	349.849755177	FALSE	FALSE	FALSE	FALSE	TRUE	0	FALSE	FALSE	TRUE
e17	2015	08	06	18	08	f	20	r	3.11060310702	4	55	0.535960508045	0.708794527582	right	tactile	left	visual	target	voice	397.395603126	FALSE	FALSE	FALSE	FALSE	TRUE	0	FALSE	FALSE	TRUE
