id	year	month	day	hour	minute	sex	age	handedness	message_viewing_time	block	trial_num	trial_initiation_time	fixation_duration	cue_location	cue_modality	target_location	target_modality	target_type	target_response_key	target_response_rt	pre_target_response	feedback_response	recalibration	blink	saccade	biggest_small_saccade	critical_blink	critical_saccade	target_started_TF
e18	2015	08	26	18	37	f	16	r	391.18355081	practice	1	17.699803628	1.1480200742	left	tactile	right	tactile	target	voice	NA	TRUE	FALSE	FALSE	FALSE	TRUE	0	FALSE	FALSE	FALSE
e18	2015	08	26	18	37	f	16	r	391.18355081	practice	2	14.694948571	0.614761806579	right	visual	right	visual	target	NA	NA	FALSE	FALSE	FALSE	FALSE	TRUE	0	FALSE	TRUE	TRUE
e18	2015	08	26	18	37	f	16	r	391.18355081	practice	3	0.892999575008	0.763015104259	right	visual	right	tactile	target	NA	NA	FALSE	FALSE	FALSE	FALSE	TRUE	0	FALSE	TRUE	TRUE
e18	2015	08	26	18	37	f	16	r	391.18355081	practice	4	17.381519048	0.620833805269	right	visual	left	tactile	target	voice	336.124125402	FALSE	FALSE	FALSE	FALSE	TRUE	0	FALSE	TRUE	TRUE
e18	2015	08	26	18	37	f	16	r	391.18355081	practice	5	4.83969716902	1.19349680562	left	tactile	right	visual	target	voice	328.657770064	FALSE	FALSE	FALSE	FALSE	TRUE	0	FALSE	TRUE	TRUE
e18	2015	08	26	18	37	f	16	r	391.18355081	practice	6	1.39965032303	1.38970625409	left	tactile	left	visual	target	voice	327.2479726	FALSE	FALSE	FALSE	FALSE	TRUE	0	FALSE	TRUE	TRUE
e18	2015	08	26	18	37	f	16	r	391.18355081	practice	7	1.31471232697	1.39055849023	left	visual	right	tactile	target	voice	301.627576468	FALSE	FALSE	FALSE	FALSE	TRUE	0	FALSE	TRUE	TRUE
e18	2015	08	26	18	37	f	16	r	391.18355081	practice	8	0.947901512031	0.746620236779	left	tactile	right	tactile	target	voice	350.626814878	FALSE	FALSE	FALSE	FALSE	TRUE	0	FALSE	TRUE	TRUE
e18	2015	08	26	18	37	f	16	r	391.18355081	practice	9	1.340690843	1.10384080934	left	tactile	left	tactile	target	voice	394.785022363	FALSE	FALSE	FALSE	FALSE	TRUE	0	FALSE	TRUE	TRUE
e18	2015	08	26	18	37	f	16	r	391.18355081	practice	10	2.09015997895	1.19398793124	right	visual	left	tactile	target	voice	268.116294406	FALSE	FALSE	FALSE	FALSE	TRUE	0	FALSE	TRUE	TRUE
e18	2015	08	26	18	37	f	16	r	391.18355081	practice	11	1.27144290798	1.46350978304	right	visual	right	tactile	target	voice	280.847373593	FALSE	FALSE	FALSE	FALSE	TRUE	0	FALSE	TRUE	TRUE
e18	2015	08	26	18	37	f	16	r	391.18355081	practice	12	1.05665185105	1.11086632922	right	visual	left	visual	target	voice	417.21837339	FALSE	FALSE	FALSE	FALSE	TRUE	0	FALSE	TRUE	TRUE
e18	2015	08	26	18	37	f	16	r	391.18355081	practice	13	0.95369741699	0.872459028356	left	tactile	left	visual	target	voice	270.227467292	FALSE	FALSE	FALSE	FALSE	TRUE	0	FALSE	TRUE	TRUE
e18	2015	08	26	18	37	f	16	r	391.18355081	practice	14	0.788008767006	0.526115768696	right	tactile	right	tactile	target	voice	406.281566946	FALSE	FALSE	FALSE	FALSE	TRUE	0	FALSE	TRUE	TRUE
e18	2015	08	26	18	37	f	16	r	391.18355081	practice	15	0.774154059996	1.226417597	left	visual	right	visual	target	voice	270.798119716	FALSE	FALSE	FALSE	FALSE	TRUE	0	FALSE	TRUE	TRUE
e18	2015	08	26	18	37	f	16	r	391.18355081	practice	16	0.877055626013	1.34410758457	right	tactile	right	visual	target	voice	297.448000114	FALSE	FALSE	FALSE	FALSE	TRUE	0	FALSE	TRUE	TRUE
e18	2015	08	26	18	37	f	16	r	391.18355081	practice	17	0.802943571995	1.09476746236	left	tactile	left	visual	target	voice	313.46270832	FALSE	FALSE	FALSE	FALSE	TRUE	0	FALSE	TRUE	TRUE
e18	2015	08	26	18	37	f	16	r	391.18355081	practice	18	1.13465089101	0.525822350122	left	tactile	right	visual	target	voice	344.197459577	FALSE	FALSE	FALSE	FALSE	TRUE	0	FALSE	TRUE	TRUE
e18	2015	08	26	18	37	f	16	r	391.18355081	practice	19	1.677972315	0.883081273017	right	visual	left	visual	target	voice	221.179053711	FALSE	FALSE	FALSE	FALSE	TRUE	0	FALSE	TRUE	TRUE
e18	2015	08	26	18	37	f	16	r	391.18355081	practice	20	0.63018702605	0.923675193446	right	tactile	left	visual	target	voice	NA	TRUE	FALSE	FALSE	FALSE	TRUE	0	FALSE	FALSE	FALSE
e18	2015	08	26	18	37	f	16	r	391.18355081	practice	21	1.51084999304	1.44501067369	left	tactile	right	tactile	target	voice	305.671907903	FALSE	FALSE	FALSE	FALSE	TRUE	0	FALSE	TRUE	TRUE
e18	2015	08	26	18	37	f	16	r	391.18355081	practice	22	1.39957131597	0.55978646728	right	tactile	right	visual	target	voice	247.74123641	FALSE	FALSE	FALSE	FALSE	TRUE	0	FALSE	TRUE	TRUE
e18	2015	08	26	18	37	f	16	r	391.18355081	practice	23	1.281202271	1.46582462751	left	visual	right	visual	target	voice	NA	TRUE	FALSE	FALSE	FALSE	TRUE	0	FALSE	TRUE	FALSE
e18	2015	08	26	18	37	f	16	r	391.18355081	practice	24	1.35410105204	0.906399511895	right	tactile	right	tactile	target	voice	333.774228813	FALSE	FALSE	FALSE	FALSE	TRUE	0	FALSE	TRUE	TRUE
e18	2015	08	26	18	37	f	16	r	391.18355081	practice	25	0.960482532973	0.619242567996	left	visual	left	tactile	catch	NA	NA	FALSE	FALSE	FALSE	FALSE	TRUE	0	FALSE	TRUE	TRUE
e18	2015	08	26	18	37	f	16	r	391.18355081	practice	26	0.84510416101	0.541797616188	left	visual	right	tactile	target	voice	283.585294499	FALSE	FALSE	FALSE	FALSE	TRUE	0	FALSE	TRUE	TRUE
e18	2015	08	26	18	37	f	16	r	391.18355081	practice	27	1.07927594398	0.989780894105	right	visual	right	visual	target	voice	514.173989533	FALSE	FALSE	FALSE	FALSE	TRUE	0	FALSE	TRUE	TRUE
e18	2015	08	26	18	37	f	16	r	391.18355081	practice	28	0.73388149502	1.13951989114	left	visual	right	visual	target	voice	366.288756544	FALSE	FALSE	FALSE	FALSE	TRUE	0	FALSE	TRUE	TRUE
e18	2015	08	26	18	37	f	16	r	391.18355081	practice	29	0.90970123501	1.199101667	left	tactile	left	tactile	target	voice	272.094338725	FALSE	FALSE	FALSE	FALSE	TRUE	0	FALSE	TRUE	TRUE
e18	2015	08	26	18	37	f	16	r	391.18355081	practice	30	0.701362805034	0.743159487302	right	visual	right	tactile	target	voice	299.749216356	FALSE	FALSE	FALSE	FALSE	TRUE	0	FALSE	TRUE	TRUE
e18	2015	08	26	18	37	f	16	r	391.18355081	practice	31	0.766265811981	0.799153849717	right	tactile	left	tactile	target	voice	283.196530945	FALSE	FALSE	FALSE	FALSE	TRUE	0	FALSE	TRUE	TRUE
e18	2015	08	26	18	37	f	16	r	391.18355081	practice	32	0.747466984962	0.752620961835	right	visual	left	visual	target	voice	305.583565845	FALSE	FALSE	FALSE	FALSE	TRUE	0	FALSE	TRUE	TRUE
e18	2015	08	26	18	37	f	16	r	391.18355081	practice	33	3.23833244498	0.742689766965	left	tactile	left	visual	target	voice	307.716232724	FALSE	FALSE	FALSE	FALSE	TRUE	0	FALSE	TRUE	TRUE
e18	2015	08	26	18	37	f	16	r	391.18355081	practice	34	0.723410630948	0.800042462693	left	visual	left	visual	target	voice	216.391439957	FALSE	FALSE	FALSE	FALSE	TRUE	0	FALSE	TRUE	TRUE
e18	2015	08	26	18	37	f	16	r	391.18355081	practice	35	0.766843476973	0.802350205226	right	visual	right	visual	target	voice	410.379148379	FALSE	FALSE	FALSE	FALSE	TRUE	0	FALSE	TRUE	TRUE
e18	2015	08	26	18	37	f	16	r	391.18355081	practice	36	0.957174701034	0.88037481781	left	tactile	right	tactile	target	voice	221.900744829	FALSE	FALSE	FALSE	FALSE	TRUE	0	FALSE	TRUE	TRUE
e18	2015	08	26	18	37	f	16	r	391.18355081	practice	37	0.863954161992	1.10336305455	right	tactile	left	tactile	target	voice	266.040463117	FALSE	FALSE	FALSE	FALSE	TRUE	0	FALSE	TRUE	TRUE
e18	2015	08	26	18	37	f	16	r	391.18355081	practice	38	0.892741001968	0.895040432443	right	visual	right	visual	catch	NA	NA	FALSE	FALSE	FALSE	FALSE	TRUE	0	FALSE	TRUE	TRUE
e18	2015	08	26	18	37	f	16	r	391.18355081	practice	39	0.718036761973	0.984271373571	right	tactile	left	tactile	target	voice	115.430559032	FALSE	FALSE	FALSE	FALSE	TRUE	0	FALSE	TRUE	TRUE
e18	2015	08	26	18	37	f	16	r	391.18355081	practice	40	0.885573017993	0.960927131052	right	tactile	right	tactile	target	voice	NA	TRUE	FALSE	FALSE	FALSE	TRUE	0	FALSE	TRUE	FALSE
e18	2015	08	26	18	37	f	16	r	96.904904408	1	1	4.02933542	1.17341527712	right	visual	right	tactile	target	voice	300.027911551	FALSE	FALSE	FALSE	FALSE	TRUE	0	FALSE	TRUE	TRUE
e18	2015	08	26	18	37	f	16	r	96.904904408	1	2	5.20144103898	0.744095365864	right	visual	left	tactile	target	voice	219.843182771	FALSE	FALSE	FALSE	FALSE	TRUE	0	FALSE	TRUE	TRUE
e18	2015	08	26	18	37	f	16	r	96.904904408	1	3	0.987687506014	0.989532565986	right	visual	right	visual	target	voice	373.542331683	FALSE	FALSE	FALSE	FALSE	TRUE	0	FALSE	TRUE	TRUE
e18	2015	08	26	18	37	f	16	r	96.904904408	1	4	1.528091538	0.656582252088	left	visual	left	visual	target	voice	352.81504161	FALSE	FALSE	FALSE	FALSE	TRUE	0	FALSE	TRUE	TRUE
e18	2015	08	26	18	37	f	16	r	96.904904408	1	5	1.02485770796	0.583735066216	right	visual	left	visual	target	voice	342.881851422	FALSE	FALSE	FALSE	FALSE	TRUE	0	FALSE	TRUE	TRUE
e18	2015	08	26	18	37	f	16	r	96.904904408	1	6	3.32513856603	1.3026976141	right	visual	left	visual	target	voice	NA	TRUE	FALSE	FALSE	FALSE	TRUE	0	FALSE	TRUE	FALSE
e18	2015	08	26	18	37	f	16	r	96.904904408	1	7	1.30126662599	0.957756563155	left	tactile	left	visual	target	voice	323.804334505	FALSE	FALSE	FALSE	FALSE	TRUE	0	FALSE	TRUE	TRUE
e18	2015	08	26	18	37	f	16	r	96.904904408	1	8	0.947010867996	0.576942229007	right	visual	left	visual	target	voice	314.703445649	FALSE	FALSE	FALSE	FALSE	TRUE	0	FALSE	TRUE	TRUE
e18	2015	08	26	18	37	f	16	r	96.904904408	1	9	4.01914769702	0.514482121971	left	visual	left	tactile	target	voice	290.233579697	FALSE	FALSE	FALSE	FALSE	TRUE	0	FALSE	TRUE	TRUE
e18	2015	08	26	18	37	f	16	r	96.904904408	1	10	1.04531809496	1.22889123374	left	tactile	right	visual	catch	NA	NA	FALSE	FALSE	FALSE	FALSE	TRUE	0	FALSE	TRUE	TRUE
e18	2015	08	26	18	37	f	16	r	96.904904408	1	11	1.309603806	0.727278246841	right	visual	right	visual	target	voice	410.207515815	FALSE	FALSE	FALSE	FALSE	TRUE	0	FALSE	TRUE	TRUE
e18	2015	08	26	18	37	f	16	r	96.904904408	1	12	0.832044939976	1.16994695193	right	visual	right	visual	target	voice	372.671543737	FALSE	FALSE	FALSE	FALSE	TRUE	0	FALSE	TRUE	TRUE
e18	2015	08	26	18	37	f	16	r	96.904904408	1	13	0.693485444004	0.548468219124	left	visual	left	visual	catch	NA	NA	FALSE	FALSE	FALSE	FALSE	TRUE	0	FALSE	TRUE	TRUE
e18	2015	08	26	18	37	f	16	r	96.904904408	1	14	0.83716730302	0.912428643936	right	visual	left	tactile	target	voice	285.835667688	FALSE	FALSE	FALSE	FALSE	TRUE	0	FALSE	TRUE	TRUE
e18	2015	08	26	18	37	f	16	r	96.904904408	1	15	0.811045346025	0.639830209543	right	visual	left	visual	target	voice	300.928925106	FALSE	FALSE	FALSE	FALSE	TRUE	0	FALSE	TRUE	TRUE
e18	2015	08	26	18	37	f	16	r	96.904904408	1	16	0.707821900956	0.809993006831	left	tactile	left	tactile	target	voice	439.196785854	FALSE	FALSE	FALSE	FALSE	TRUE	0	FALSE	TRUE	TRUE
e18	2015	08	26	18	37	f	16	r	96.904904408	1	17	1.11786532495	0.549817278368	right	visual	right	tactile	target	voice	332.874753338	FALSE	FALSE	FALSE	FALSE	TRUE	0	FALSE	TRUE	TRUE
e18	2015	08	26	18	37	f	16	r	96.904904408	1	18	0.65841983899	0.832854083846	right	tactile	left	tactile	target	voice	292.52432083	FALSE	FALSE	FALSE	FALSE	TRUE	0	FALSE	TRUE	TRUE
e18	2015	08	26	18	37	f	16	r	96.904904408	1	19	0.889689654985	0.718354525137	right	tactile	left	tactile	target	voice	531.292359519	FALSE	FALSE	FALSE	FALSE	TRUE	0	FALSE	TRUE	TRUE
e18	2015	08	26	18	37	f	16	r	96.904904408	1	20	0.798713447002	1.10711975036	left	tactile	right	visual	target	voice	402.010385355	FALSE	FALSE	FALSE	FALSE	TRUE	0	FALSE	TRUE	TRUE
e18	2015	08	26	18	37	f	16	r	96.904904408	1	21	1.90268609399	0.556602257311	right	tactile	left	visual	catch	NA	NA	FALSE	FALSE	FALSE	FALSE	TRUE	0	FALSE	TRUE	TRUE
e18	2015	08	26	18	37	f	16	r	96.904904408	1	22	0.969948650978	0.82116133536	right	visual	left	tactile	catch	NA	NA	FALSE	FALSE	FALSE	FALSE	TRUE	0	FALSE	TRUE	TRUE
e18	2015	08	26	18	37	f	16	r	96.904904408	1	23	0.797689273953	0.955225476506	left	tactile	left	tactile	catch	NA	NA	FALSE	FALSE	FALSE	FALSE	TRUE	0	FALSE	TRUE	TRUE
e18	2015	08	26	18	37	f	16	r	96.904904408	1	24	0.790839970985	0.555080383761	left	tactile	right	tactile	target	voice	349.58541888	FALSE	FALSE	FALSE	FALSE	TRUE	0	FALSE	TRUE	TRUE
e18	2015	08	26	18	37	f	16	r	96.904904408	1	25	0.951465031016	0.736513093103	left	visual	left	visual	target	voice	471.829461574	FALSE	FALSE	FALSE	FALSE	TRUE	0	FALSE	TRUE	TRUE
e18	2015	08	26	18	37	f	16	r	96.904904408	1	26	0.588999709988	1.38301528109	left	visual	left	tactile	target	voice	348.062327539	FALSE	FALSE	FALSE	FALSE	TRUE	0	FALSE	TRUE	TRUE
e18	2015	08	26	18	37	f	16	r	96.904904408	1	27	0.585272377008	1.41571228294	left	tactile	left	tactile	target	voice	390.843535715	FALSE	FALSE	FALSE	FALSE	TRUE	0	FALSE	TRUE	TRUE
e18	2015	08	26	18	37	f	16	r	96.904904408	1	28	1.64980688697	0.628080204348	right	tactile	right	visual	target	voice	444.012708322	FALSE	FALSE	FALSE	FALSE	TRUE	0	FALSE	TRUE	TRUE
e18	2015	08	26	18	37	f	16	r	96.904904408	1	29	0.604136915994	1.28858450686	right	tactile	left	visual	target	voice	343.368807808	FALSE	FALSE	FALSE	FALSE	TRUE	0	FALSE	TRUE	TRUE
e18	2015	08	26	18	37	f	16	r	96.904904408	1	30	0.600707328995	0.569864016121	right	tactile	right	visual	catch	NA	NA	FALSE	FALSE	FALSE	FALSE	TRUE	0	FALSE	TRUE	TRUE
e18	2015	08	26	18	37	f	16	r	96.904904408	1	31	0.666011268971	1.27495525017	left	tactile	left	tactile	target	voice	313.782679499	FALSE	FALSE	FALSE	TRUE	TRUE	0	FALSE	TRUE	TRUE
e18	2015	08	26	18	37	f	16	r	96.904904408	1	32	0.486079249997	1.20634663821	right	tactile	left	visual	target	voice	345.62990244	FALSE	FALSE	FALSE	FALSE	TRUE	0	FALSE	TRUE	TRUE
e18	2015	08	26	18	37	f	16	r	96.904904408	1	33	0.918903776968	1.18864097629	left	tactile	right	tactile	catch	NA	NA	FALSE	FALSE	FALSE	FALSE	TRUE	0	FALSE	TRUE	TRUE
e18	2015	08	26	18	37	f	16	r	96.904904408	1	34	0.983636812016	1.18697984159	left	visual	left	visual	target	voice	375.784311094	FALSE	FALSE	FALSE	FALSE	TRUE	0	FALSE	TRUE	TRUE
e18	2015	08	26	18	37	f	16	r	96.904904408	1	35	0.583033511997	1.17685367568	right	visual	right	visual	target	voice	376.744206995	FALSE	FALSE	FALSE	FALSE	TRUE	0	FALSE	TRUE	TRUE
e18	2015	08	26	18	37	f	16	r	96.904904408	1	36	1.56768379203	1.4030019913	left	visual	right	visual	target	voice	424.092862348	FALSE	FALSE	FALSE	FALSE	TRUE	0	FALSE	TRUE	TRUE
e18	2015	08	26	18	37	f	16	r	96.904904408	1	37	0.545715355023	0.855104912022	right	tactile	right	tactile	target	voice	367.681654694	FALSE	FALSE	FALSE	FALSE	TRUE	0	FALSE	TRUE	TRUE
e18	2015	08	26	18	37	f	16	r	96.904904408	1	38	0.721212094009	0.961421443427	left	tactile	right	tactile	target	voice	341.052336211	FALSE	FALSE	FALSE	FALSE	TRUE	0	FALSE	TRUE	TRUE
e18	2015	08	26	18	37	f	16	r	96.904904408	1	39	0.618783952028	1.06794139787	left	visual	right	tactile	target	voice	291.530879796	FALSE	FALSE	FALSE	FALSE	TRUE	0	FALSE	TRUE	TRUE
e18	2015	08	26	18	37	f	16	r	96.904904408	1	40	0.560107152967	0.652645684698	left	tactile	left	visual	target	voice	336.472648953	FALSE	FALSE	FALSE	FALSE	TRUE	0	FALSE	TRUE	TRUE
e18	2015	08	26	18	37	f	16	r	20.572787154	1	41	11.642421728	1.31715515062	right	tactile	right	tactile	target	voice	286.085177038	FALSE	FALSE	FALSE	FALSE	TRUE	0	FALSE	TRUE	TRUE
e18	2015	08	26	18	37	f	16	r	20.572787154	1	42	0.707787421008	0.687885968669	left	tactile	right	visual	target	voice	405.02043406	FALSE	FALSE	FALSE	FALSE	TRUE	0	FALSE	TRUE	TRUE
e18	2015	08	26	18	37	f	16	r	20.572787154	1	43	0.449641190004	0.936902832812	right	visual	right	visual	target	voice	335.738571826	FALSE	FALSE	FALSE	FALSE	TRUE	0	FALSE	TRUE	TRUE
e18	2015	08	26	18	37	f	16	r	20.572787154	1	44	0.504579170025	1.42871433564	right	tactile	right	tactile	target	voice	270.12484899	FALSE	FALSE	FALSE	FALSE	TRUE	0	FALSE	TRUE	TRUE
e18	2015	08	26	18	37	f	16	r	20.572787154	1	45	0.568624962005	0.608878194655	right	tactile	left	visual	target	voice	431.76229205	FALSE	FALSE	FALSE	FALSE	TRUE	0	FALSE	TRUE	TRUE
e18	2015	08	26	18	37	f	16	r	20.572787154	1	46	0.424314733013	0.582378574068	right	tactile	left	tactile	target	voice	316.071942623	FALSE	FALSE	FALSE	FALSE	TRUE	0	FALSE	TRUE	TRUE
e18	2015	08	26	18	37	f	16	r	20.572787154	1	47	0.72208623297	1.41573792602	right	tactile	right	tactile	catch	NA	NA	FALSE	FALSE	FALSE	FALSE	TRUE	0	FALSE	TRUE	TRUE
e18	2015	08	26	18	37	f	16	r	20.572787154	1	48	0.622288817947	1.06827634818	left	tactile	right	tactile	target	voice	287.15759347	FALSE	FALSE	FALSE	FALSE	TRUE	0	FALSE	TRUE	TRUE
e18	2015	08	26	18	37	f	16	r	20.572787154	1	49	0.518728166993	0.550167628203	right	visual	left	tactile	target	voice	313.321310445	FALSE	FALSE	FALSE	FALSE	TRUE	0	FALSE	TRUE	TRUE
e18	2015	08	26	18	37	f	16	r	20.572787154	1	50	0.581053709029	1.04638848135	right	tactile	left	visual	target	voice	479.848824325	FALSE	FALSE	FALSE	FALSE	TRUE	0	FALSE	TRUE	TRUE
e18	2015	08	26	18	37	f	16	r	20.572787154	1	51	0.595766865998	1.47080966969	left	tactile	right	tactile	target	voice	262.954738981	FALSE	FALSE	FALSE	FALSE	TRUE	0	FALSE	TRUE	TRUE
e18	2015	08	26	18	37	f	16	r	20.572787154	1	52	0.490282487997	0.589852783364	right	tactile	right	visual	target	voice	372.338214307	FALSE	FALSE	FALSE	FALSE	TRUE	0	FALSE	TRUE	TRUE
e18	2015	08	26	18	37	f	16	r	20.572787154	1	53	0.51101359498	1.30031980787	right	visual	left	tactile	target	voice	313.556967769	FALSE	FALSE	FALSE	FALSE	TRUE	0	FALSE	TRUE	TRUE
e18	2015	08	26	18	37	f	16	r	20.572787154	1	54	0.549264159985	0.873052770374	left	tactile	left	visual	target	voice	482.460898289	FALSE	FALSE	FALSE	FALSE	TRUE	0	FALSE	TRUE	TRUE
e18	2015	08	26	18	37	f	16	r	20.572787154	1	55	1.58506821096	1.17806891451	right	tactile	left	tactile	catch	NA	NA	FALSE	FALSE	FALSE	FALSE	TRUE	0	FALSE	TRUE	TRUE
e18	2015	08	26	18	37	f	16	r	20.572787154	1	56	0.946875005029	0.650030779871	right	tactile	left	tactile	target	voice	367.779798806	FALSE	FALSE	FALSE	FALSE	TRUE	0	FALSE	TRUE	TRUE
e18	2015	08	26	18	37	f	16	r	20.572787154	1	57	0.488343620964	0.568841981577	right	visual	left	visual	target	voice	389.67207208	FALSE	FALSE	FALSE	FALSE	TRUE	0	FALSE	TRUE	TRUE
e18	2015	08	26	18	37	f	16	r	20.572787154	1	58	0.542591013014	1.41605697553	right	visual	left	tactile	target	voice	301.635555108	FALSE	FALSE	FALSE	FALSE	TRUE	0	FALSE	TRUE	TRUE
e18	2015	08	26	18	37	f	16	r	20.572787154	1	59	0.53258578002	0.58212784458	right	tactile	right	visual	target	voice	434.656837082	FALSE	FALSE	FALSE	FALSE	TRUE	0	FALSE	TRUE	TRUE
e18	2015	08	26	18	37	f	16	r	20.572787154	1	60	0.500184817996	1.41836658354	right	tactile	right	tactile	target	voice	549.899737118	FALSE	FALSE	FALSE	FALSE	TRUE	0	FALSE	TRUE	TRUE
e18	2015	08	26	18	37	f	16	r	20.572787154	1	61	0.473905211024	1.1042506452	right	visual	right	visual	target	voice	403.789926437	FALSE	FALSE	FALSE	FALSE	TRUE	0	FALSE	TRUE	TRUE
e18	2015	08	26	18	37	f	16	r	20.572787154	1	62	2.368693033	0.551066217258	left	tactile	left	tactile	target	voice	441.28216838	FALSE	FALSE	FALSE	FALSE	TRUE	0	FALSE	TRUE	TRUE
e18	2015	08	26	18	37	f	16	r	20.572787154	1	63	0.575700005982	0.505789247743	left	tactile	right	visual	target	voice	353.537572897	FALSE	FALSE	FALSE	FALSE	TRUE	0	FALSE	TRUE	TRUE
e18	2015	08	26	18	37	f	16	r	20.572787154	1	64	1.58084714704	0.838175917452	right	tactile	right	visual	target	voice	393.803885207	FALSE	FALSE	FALSE	FALSE	TRUE	0	FALSE	TRUE	TRUE
e18	2015	08	26	18	37	f	16	r	20.572787154	1	65	0.748539833003	0.917192313862	left	visual	left	visual	target	voice	425.097176747	FALSE	FALSE	FALSE	FALSE	TRUE	0	FALSE	TRUE	TRUE
e18	2015	08	26	18	37	f	16	r	20.572787154	1	66	0.500021637999	1.24194201659	left	tactile	right	visual	target	voice	286.808551115	FALSE	FALSE	FALSE	FALSE	TRUE	0	FALSE	TRUE	TRUE
e18	2015	08	26	18	37	f	16	r	20.572787154	1	67	0.519867569034	1.0253531167	left	visual	right	tactile	target	voice	301.911271992	FALSE	FALSE	FALSE	FALSE	TRUE	0	FALSE	TRUE	TRUE
e18	2015	08	26	18	37	f	16	r	20.572787154	1	68	0.440049210039	1.03405018488	left	visual	left	tactile	target	voice	330.288581725	FALSE	FALSE	FALSE	FALSE	TRUE	0	FALSE	TRUE	TRUE
e18	2015	08	26	18	37	f	16	r	20.572787154	1	69	0.416350737039	1.39791341516	left	visual	left	visual	target	voice	394.353722455	FALSE	FALSE	FALSE	FALSE	TRUE	0	FALSE	TRUE	TRUE
e18	2015	08	26	18	37	f	16	r	20.572787154	1	70	0.415375399054	0.513710500414	right	tactile	left	visual	target	voice	406.71514225	FALSE	FALSE	FALSE	FALSE	TRUE	0	FALSE	TRUE	TRUE
e18	2015	08	26	18	37	f	16	r	20.572787154	1	71	0.51871701004	1.01098604542	left	tactile	left	visual	target	voice	109.763085202	FALSE	FALSE	FALSE	FALSE	TRUE	0	FALSE	TRUE	TRUE
e18	2015	08	26	18	37	f	16	r	20.572787154	1	72	0.935339246003	1.44217541339	right	visual	left	tactile	target	voice	273.295392282	FALSE	FALSE	FALSE	FALSE	TRUE	0	FALSE	TRUE	TRUE
e18	2015	08	26	18	37	f	16	r	20.572787154	1	73	0.439053653041	1.06893951932	right	tactile	right	tactile	target	voice	402.430193324	FALSE	FALSE	FALSE	FALSE	TRUE	0	FALSE	TRUE	TRUE
e18	2015	08	26	18	37	f	16	r	20.572787154	1	74	0.41928145499	1.42191856279	left	tactile	left	visual	target	voice	277.407263871	FALSE	FALSE	FALSE	FALSE	TRUE	0	FALSE	TRUE	TRUE
e18	2015	08	26	18	37	f	16	r	20.572787154	1	75	1.46408074198	0.894350905211	left	visual	right	tactile	target	voice	297.886749438	FALSE	FALSE	FALSE	FALSE	TRUE	0	FALSE	TRUE	TRUE
e18	2015	08	26	18	37	f	16	r	20.572787154	1	76	0.407683618017	1.06826031273	left	visual	right	visual	target	voice	309.400418948	FALSE	FALSE	FALSE	FALSE	TRUE	0	FALSE	TRUE	TRUE
e18	2015	08	26	18	37	f	16	r	20.572787154	1	77	1.62491046498	1.45746370464	right	tactile	left	tactile	target	voice	282.914181007	FALSE	FALSE	FALSE	FALSE	TRUE	0	FALSE	FALSE	TRUE
e18	2015	08	26	18	37	f	16	r	20.572787154	1	78	0.396062428947	0.819584433904	right	visual	right	visual	target	voice	379.248361744	FALSE	FALSE	FALSE	FALSE	TRUE	0	FALSE	TRUE	TRUE
e18	2015	08	26	18	37	f	16	r	20.572787154	1	79	0.397649794992	1.2378944873	right	tactile	left	visual	target	voice	317.085574381	FALSE	FALSE	FALSE	FALSE	TRUE	0	FALSE	TRUE	TRUE
e18	2015	08	26	18	37	f	16	r	20.572787154	1	80	0.426462688018	0.91428198541	right	visual	right	visual	target	voice	423.272635206	FALSE	FALSE	FALSE	FALSE	TRUE	0	FALSE	FALSE	TRUE
e18	2015	08	26	18	37	f	16	r	28.574511662	1	81	20.381208694	0.927721606721	left	tactile	right	tactile	target	voice	268.176199927	FALSE	FALSE	FALSE	FALSE	TRUE	0	FALSE	TRUE	TRUE
e18	2015	08	26	18	37	f	16	r	28.574511662	1	82	0.747675956984	1.46945845738	right	tactile	right	tactile	target	voice	315.094787278	FALSE	FALSE	FALSE	FALSE	TRUE	0	FALSE	TRUE	TRUE
e18	2015	08	26	18	37	f	16	r	28.574511662	1	83	0.418714530009	0.810831889102	right	visual	right	tactile	target	voice	273.342933564	FALSE	FALSE	FALSE	FALSE	TRUE	0	FALSE	TRUE	TRUE
e18	2015	08	26	18	37	f	16	r	28.574511662	1	84	1.34589120501	1.22164771991	left	visual	right	visual	catch	NA	NA	FALSE	FALSE	FALSE	FALSE	TRUE	0	FALSE	TRUE	TRUE
e18	2015	08	26	18	37	f	16	r	28.574511662	1	85	0.795979789982	0.89115703041	left	tactile	right	visual	target	voice	347.156152246	FALSE	FALSE	FALSE	FALSE	TRUE	0	FALSE	TRUE	TRUE
e18	2015	08	26	18	37	f	16	r	28.574511662	1	86	0.421263948025	1.24317546174	right	visual	right	tactile	target	voice	311.27889792	FALSE	FALSE	FALSE	FALSE	TRUE	0	FALSE	TRUE	TRUE
e18	2015	08	26	18	37	f	16	r	28.574511662	1	87	0.422501485969	0.938973871949	right	visual	right	tactile	target	voice	335.259620741	FALSE	FALSE	FALSE	FALSE	TRUE	0	FALSE	TRUE	TRUE
e18	2015	08	26	18	37	f	16	r	28.574511662	1	88	0.422037342971	0.984328088494	left	tactile	right	visual	target	voice	430.812680221	FALSE	FALSE	FALSE	FALSE	TRUE	0	FALSE	TRUE	TRUE
e18	2015	08	26	18	37	f	16	r	28.574511662	1	89	0.406400820997	0.705802721275	right	visual	right	visual	target	voice	397.078708396	FALSE	FALSE	FALSE	FALSE	TRUE	0	FALSE	TRUE	TRUE
e18	2015	08	26	18	37	f	16	r	28.574511662	1	90	0.414407543023	1.30467635626	right	tactile	left	tactile	target	voice	325.733888429	FALSE	FALSE	FALSE	FALSE	TRUE	0	FALSE	TRUE	TRUE
e18	2015	08	26	18	37	f	16	r	28.574511662	1	91	0.401246258989	1.3518936316	left	tactile	right	tactile	target	voice	262.810884044	FALSE	FALSE	FALSE	FALSE	TRUE	0	FALSE	TRUE	TRUE
e18	2015	08	26	18	37	f	16	r	28.574511662	1	92	0.427775287011	0.68371182129	right	tactile	left	tactile	target	voice	292.370910349	FALSE	FALSE	FALSE	FALSE	TRUE	0	FALSE	TRUE	TRUE
e18	2015	08	26	18	37	f	16	r	28.574511662	1	93	0.442664918024	0.820376140595	right	tactile	right	visual	target	voice	364.018829074	FALSE	FALSE	FALSE	FALSE	TRUE	0	FALSE	TRUE	TRUE
e18	2015	08	26	18	37	f	16	r	28.574511662	1	94	0.399012899026	0.530364792539	left	visual	right	tactile	target	voice	330.326446099	FALSE	FALSE	FALSE	FALSE	TRUE	0	FALSE	TRUE	TRUE
e18	2015	08	26	18	37	f	16	r	28.574511662	1	95	0.521650187031	1.39336275977	left	visual	right	visual	target	voice	358.795392909	FALSE	FALSE	FALSE	FALSE	TRUE	0	FALSE	TRUE	TRUE
e18	2015	08	26	18	37	f	16	r	28.574511662	1	96	0.518916853005	0.75870633531	left	visual	right	visual	target	voice	344.607954321	FALSE	FALSE	FALSE	FALSE	TRUE	0	FALSE	TRUE	TRUE
e18	2015	08	26	18	37	f	16	r	28.574511662	1	97	0.493020603026	0.619218987863	left	visual	left	tactile	target	voice	537.570276763	FALSE	FALSE	FALSE	FALSE	TRUE	0	FALSE	TRUE	TRUE
e18	2015	08	26	18	37	f	16	r	28.574511662	1	98	1.60398237599	0.588505165662	right	visual	left	visual	target	voice	NA	TRUE	FALSE	FALSE	FALSE	TRUE	0	FALSE	FALSE	FALSE
e18	2015	08	26	18	37	f	16	r	28.574511662	1	99	1.01385865296	0.562735042715	left	visual	left	tactile	target	voice	320.063633902	FALSE	FALSE	FALSE	FALSE	TRUE	0	FALSE	TRUE	TRUE
e18	2015	08	26	18	37	f	16	r	28.574511662	1	100	0.576967640023	1.11584224245	right	visual	right	visual	catch	NA	NA	FALSE	FALSE	FALSE	FALSE	TRUE	0	FALSE	TRUE	TRUE
e18	2015	08	26	18	37	f	16	r	28.574511662	1	101	0.728270699969	0.982914290105	right	tactile	right	tactile	target	voice	376.656049571	FALSE	FALSE	FALSE	FALSE	TRUE	0	FALSE	TRUE	TRUE
e18	2015	08	26	18	37	f	16	r	28.574511662	1	102	67.339405193	1.0241085537	left	visual	left	visual	target	voice	431.755967962	FALSE	FALSE	FALSE	FALSE	TRUE	0	FALSE	TRUE	TRUE
e18	2015	08	26	18	37	f	16	r	28.574511662	1	103	22.530188262	0.658265605489	right	tactile	left	visual	target	voice	327.360992145	FALSE	FALSE	FALSE	FALSE	TRUE	0	FALSE	TRUE	TRUE
e18	2015	08	26	18	37	f	16	r	28.574511662	1	104	0.566090308013	1.20382952649	left	tactile	left	visual	target	voice	430.868409167	FALSE	FALSE	FALSE	FALSE	TRUE	0	FALSE	TRUE	TRUE
e18	2015	08	26	18	37	f	16	r	28.574511662	1	105	0.533285982965	1.09870209639	left	visual	left	visual	target	voice	301.757484267	FALSE	FALSE	FALSE	FALSE	TRUE	0	FALSE	TRUE	TRUE
e18	2015	08	26	18	37	f	16	r	28.574511662	1	106	0.416872083966	0.95867873325	right	tactile	right	visual	target	voice	324.615085381	FALSE	FALSE	FALSE	FALSE	TRUE	0	FALSE	TRUE	TRUE
e18	2015	08	26	18	37	f	16	r	28.574511662	1	107	0.416919392999	0.948981647117	right	tactile	right	visual	target	voice	315.146667534	FALSE	FALSE	FALSE	FALSE	TRUE	0	FALSE	TRUE	TRUE
e18	2015	08	26	18	37	f	16	r	28.574511662	1	108	0.403632953006	0.682766622714	left	tactile	right	tactile	target	voice	261.688037019	FALSE	FALSE	FALSE	FALSE	TRUE	0	FALSE	TRUE	TRUE
e18	2015	08	26	18	37	f	16	r	28.574511662	1	109	0.436686098983	0.752751675346	left	tactile	left	tactile	target	voice	277.139552345	FALSE	FALSE	FALSE	FALSE	TRUE	0	FALSE	TRUE	TRUE
e18	2015	08	26	18	37	f	16	r	28.574511662	1	110	0.410164650995	0.655065223239	left	tactile	right	tactile	target	voice	377.575229446	FALSE	FALSE	FALSE	FALSE	TRUE	0	FALSE	TRUE	TRUE
e18	2015	08	26	18	37	f	16	r	28.574511662	1	111	0.440768671979	0.900091929658	right	visual	right	tactile	target	voice	296.248708037	FALSE	FALSE	FALSE	FALSE	TRUE	0	FALSE	TRUE	TRUE
e18	2015	08	26	18	37	f	16	r	28.574511662	1	112	0.467116190994	1.30241564939	left	tactile	left	visual	target	voice	387.993908254	FALSE	FALSE	FALSE	FALSE	TRUE	0	FALSE	TRUE	TRUE
e18	2015	08	26	18	37	f	16	r	28.574511662	1	113	0.905817989027	1.21884672121	right	visual	left	visual	target	voice	383.659799409	FALSE	FALSE	FALSE	FALSE	FALSE	0	FALSE	FALSE	TRUE
e18	2015	08	26	18	37	f	16	r	28.574511662	1	114	2.21705011104	1.25875208285	right	visual	right	tactile	target	voice	289.091875835	FALSE	FALSE	FALSE	FALSE	TRUE	0	FALSE	TRUE	TRUE
e18	2015	08	26	18	37	f	16	r	28.574511662	1	115	0.644213404972	1.23503664627	right	tactile	right	tactile	target	voice	688.008009398	FALSE	FALSE	FALSE	FALSE	TRUE	0	FALSE	TRUE	TRUE
e18	2015	08	26	18	37	f	16	r	28.574511662	1	116	0.728247490013	1.22897096787	left	visual	right	tactile	target	voice	340.357290814	FALSE	FALSE	FALSE	FALSE	TRUE	0	FALSE	TRUE	TRUE
e18	2015	08	26	18	37	f	16	r	28.574511662	1	117	0.469422742026	1.14032173704	left	visual	right	tactile	target	voice	352.735953638	FALSE	FALSE	FALSE	FALSE	TRUE	0	FALSE	TRUE	TRUE
e18	2015	08	26	18	37	f	16	r	28.574511662	1	118	0.449385899992	1.36005440755	right	visual	right	tactile	target	voice	341.384543106	FALSE	FALSE	FALSE	FALSE	TRUE	0	FALSE	TRUE	TRUE
e18	2015	08	26	18	37	f	16	r	28.574511662	1	119	0.48801032902	1.03500788687	left	tactile	left	tactile	target	voice	364.966798807	FALSE	FALSE	FALSE	FALSE	TRUE	0	FALSE	TRUE	TRUE
e18	2015	08	26	18	37	f	16	r	28.574511662	1	120	0.430454351008	1.25666816565	right	visual	right	tactile	catch	NA	NA	FALSE	FALSE	FALSE	FALSE	TRUE	0	FALSE	TRUE	TRUE
e18	2015	08	26	18	37	f	16	r	24.147504724	1	121	2.55967805203	0.69420822995	right	visual	left	visual	target	voice	362.182865676	FALSE	FALSE	FALSE	FALSE	TRUE	0	FALSE	TRUE	TRUE
e18	2015	08	26	18	37	f	16	r	24.147504724	1	122	0.658276161994	0.63258716258	left	visual	left	tactile	target	voice	322.109344066	FALSE	FALSE	FALSE	FALSE	TRUE	0	FALSE	TRUE	TRUE
e18	2015	08	26	18	37	f	16	r	24.147504724	1	123	14.060482393	0.912000896009	left	visual	right	visual	target	voice	358.172654698	FALSE	FALSE	FALSE	FALSE	TRUE	0	FALSE	TRUE	TRUE
e18	2015	08	26	18	37	f	16	r	24.147504724	1	124	0.694157235965	0.999772902846	left	visual	right	visual	target	voice	280.765257834	FALSE	FALSE	FALSE	FALSE	TRUE	0	FALSE	TRUE	TRUE
e18	2015	08	26	18	37	f	16	r	24.147504724	1	125	0.634104447032	1.33165909142	right	tactile	right	visual	target	voice	404.385690286	FALSE	FALSE	FALSE	FALSE	TRUE	0	FALSE	TRUE	TRUE
e18	2015	08	26	18	37	f	16	r	24.147504724	1	126	0.657788891986	0.724466497096	left	visual	left	tactile	target	voice	272.910380561	FALSE	FALSE	FALSE	FALSE	TRUE	0	FALSE	TRUE	TRUE
e18	2015	08	26	18	37	f	16	r	24.147504724	1	127	0.519211422012	0.50724647001	left	visual	right	visual	target	voice	331.722126692	FALSE	FALSE	FALSE	FALSE	TRUE	0	FALSE	TRUE	TRUE
e18	2015	08	26	18	37	f	16	r	24.147504724	1	128	0.470574261039	1.3532524069	left	visual	left	tactile	target	voice	411.121501762	FALSE	FALSE	FALSE	FALSE	TRUE	0	FALSE	TRUE	TRUE
e18	2015	08	26	18	37	f	16	r	24.147504724	1	129	0.50986333203	1.37284917448	right	tactile	left	visual	target	voice	294.230088184	FALSE	FALSE	FALSE	FALSE	TRUE	0	FALSE	TRUE	TRUE
e18	2015	08	26	18	37	f	16	r	24.147504724	1	130	0.398348914983	0.971298387701	right	visual	left	tactile	target	voice	307.52081197	FALSE	FALSE	FALSE	FALSE	TRUE	0	FALSE	TRUE	TRUE
e18	2015	08	26	18	37	f	16	r	24.147504724	1	131	0.484243092011	0.946342482092	left	tactile	right	visual	target	voice	303.384147584	FALSE	FALSE	FALSE	FALSE	TRUE	0	FALSE	TRUE	TRUE
e18	2015	08	26	18	37	f	16	r	24.147504724	1	132	0.450248746958	1.29700685604	left	visual	left	tactile	catch	NA	NA	FALSE	FALSE	FALSE	FALSE	TRUE	0	FALSE	TRUE	TRUE
e18	2015	08	26	18	37	f	16	r	24.147504724	1	133	0.854875502002	0.966804558194	left	visual	right	tactile	target	voice	298.136330443	FALSE	FALSE	FALSE	FALSE	TRUE	0	FALSE	TRUE	TRUE
e18	2015	08	26	18	37	f	16	r	24.147504724	1	134	0.422503279988	0.658909427904	left	tactile	right	tactile	target	voice	372.452743759	FALSE	FALSE	FALSE	FALSE	TRUE	0	FALSE	TRUE	TRUE
e18	2015	08	26	18	37	f	16	r	24.147504724	1	135	0.397749677009	1.23792713079	right	tactile	left	tactile	target	voice	306.033432891	FALSE	FALSE	FALSE	FALSE	TRUE	0	FALSE	TRUE	TRUE
e18	2015	08	26	18	37	f	16	r	24.147504724	1	136	0.411611483025	1.06704127506	right	tactile	left	tactile	target	voice	349.259975599	FALSE	FALSE	FALSE	FALSE	TRUE	0	FALSE	TRUE	TRUE
e18	2015	08	26	18	37	f	16	r	24.147504724	1	137	2.08789815602	0.983696515039	right	visual	left	tactile	target	voice	295.264602639	FALSE	FALSE	FALSE	FALSE	TRUE	0	FALSE	TRUE	TRUE
e18	2015	08	26	18	37	f	16	r	24.147504724	1	138	0.558973388048	1.26018149157	left	visual	left	visual	target	voice	425.153945107	FALSE	FALSE	FALSE	FALSE	TRUE	0	FALSE	TRUE	TRUE
e18	2015	08	26	18	37	f	16	r	24.147504724	1	139	0.548842659045	1.24614094426	left	tactile	left	tactile	target	voice	379.973873438	FALSE	FALSE	FALSE	FALSE	TRUE	0	FALSE	TRUE	TRUE
e18	2015	08	26	18	37	f	16	r	24.147504724	1	140	0.504965562024	1.39745445186	left	visual	right	tactile	target	voice	324.120573758	FALSE	FALSE	FALSE	FALSE	TRUE	0	FALSE	TRUE	TRUE
e18	2015	08	26	18	37	f	16	r	24.147504724	1	141	0.548694019963	1.31444643684	left	visual	right	visual	target	voice	433.646948833	FALSE	FALSE	FALSE	FALSE	TRUE	0	FALSE	TRUE	TRUE
e18	2015	08	26	18	37	f	16	r	24.147504724	1	142	0.666524749016	1.18020492375	left	visual	right	visual	target	voice	456.111522915	FALSE	FALSE	FALSE	FALSE	TRUE	0	FALSE	TRUE	TRUE
e18	2015	08	26	18	37	f	16	r	24.147504724	1	143	0.504461577977	1.35858580921	left	visual	left	visual	target	voice	423.674715508	FALSE	FALSE	FALSE	FALSE	TRUE	0	FALSE	TRUE	TRUE
e18	2015	08	26	18	37	f	16	r	24.147504724	1	144	0.78930500499	0.503792807636	left	tactile	left	visual	catch	NA	NA	FALSE	FALSE	FALSE	FALSE	TRUE	0	FALSE	TRUE	TRUE
e18	2015	08	26	18	37	f	16	r	24.147504724	1	145	0.59635305003	0.534341552745	left	tactile	right	visual	target	voice	377.493576903	FALSE	FALSE	FALSE	FALSE	TRUE	0	FALSE	TRUE	TRUE
e18	2015	08	26	18	37	f	16	r	24.147504724	1	146	0.476064965012	1.24387554084	right	tactile	left	visual	target	voice	380.043280835	FALSE	FALSE	FALSE	FALSE	TRUE	0	FALSE	TRUE	TRUE
e18	2015	08	26	18	37	f	16	r	24.147504724	1	147	1.00728046201	0.879159111941	left	tactile	left	tactile	target	voice	375.296200742	FALSE	FALSE	FALSE	FALSE	FALSE	0	FALSE	FALSE	TRUE
e18	2015	08	26	18	37	f	16	r	24.147504724	1	148	1.99019153899	1.47361886317	left	visual	left	tactile	target	voice	309.22626151	FALSE	FALSE	FALSE	FALSE	TRUE	0	FALSE	TRUE	TRUE
e18	2015	08	26	18	37	f	16	r	24.147504724	1	149	0.556201778003	1.48336029171	right	tactile	right	visual	target	voice	550.719132938	FALSE	FALSE	FALSE	FALSE	TRUE	0	FALSE	TRUE	TRUE
e18	2015	08	26	18	37	f	16	r	24.147504724	1	150	0.464967033011	1.18022642267	left	tactile	right	visual	target	voice	348.416797002	FALSE	FALSE	FALSE	FALSE	TRUE	0	FALSE	TRUE	TRUE
e18	2015	08	26	18	37	f	16	r	24.147504724	1	151	0.491316399013	0.585929256995	right	tactile	right	tactile	target	voice	305.213053711	FALSE	FALSE	FALSE	FALSE	TRUE	0	FALSE	TRUE	TRUE
e18	2015	08	26	18	37	f	16	r	24.147504724	1	152	0.400913443998	0.831522794477	right	visual	left	visual	catch	NA	NA	FALSE	FALSE	FALSE	FALSE	TRUE	0	FALSE	TRUE	TRUE
e18	2015	08	26	18	37	f	16	r	24.147504724	1	153	0.911568693991	1.45243395807	left	tactile	left	tactile	target	voice	289.401315618	FALSE	FALSE	FALSE	FALSE	TRUE	0	FALSE	TRUE	TRUE
e18	2015	08	26	18	37	f	16	r	24.147504724	1	154	0.490066436992	1.44223796052	left	tactile	left	visual	target	voice	357.334354136	FALSE	FALSE	FALSE	FALSE	TRUE	0	FALSE	TRUE	TRUE
e18	2015	08	26	18	37	f	16	r	24.147504724	1	155	0.397743567999	0.848198477639	right	visual	left	visual	target	voice	384.59832198	FALSE	FALSE	FALSE	FALSE	TRUE	0	FALSE	TRUE	TRUE
e18	2015	08	26	18	37	f	16	r	24.147504724	1	156	0.465612916974	0.6260061054	left	visual	right	tactile	catch	NA	NA	FALSE	FALSE	FALSE	FALSE	TRUE	0	FALSE	TRUE	TRUE
e18	2015	08	26	18	37	f	16	r	24.147504724	1	157	0.622947598982	0.718526394352	right	visual	right	tactile	target	voice	366.933206329	FALSE	FALSE	FALSE	FALSE	TRUE	0	FALSE	TRUE	TRUE
e18	2015	08	26	18	37	f	16	r	24.147504724	1	158	0.481335102988	1.36819687875	left	tactile	left	visual	target	voice	365.59480289	FALSE	FALSE	FALSE	FALSE	TRUE	0	FALSE	TRUE	TRUE
e18	2015	08	26	18	37	f	16	r	24.147504724	1	159	0.490928052051	1.40291710596	right	visual	left	tactile	target	voice	353.769622743	FALSE	FALSE	FALSE	FALSE	TRUE	0	FALSE	TRUE	TRUE
e18	2015	08	26	18	37	f	16	r	24.147504724	1	160	1.27543163503	0.608186289223	left	visual	right	tactile	target	voice	354.332470451	FALSE	FALSE	FALSE	FALSE	TRUE	0	FALSE	TRUE	TRUE
e18	2015	08	26	18	37	f	16	r	32.963595959	2	1	10.59734005	0.57482678313	right	visual	left	visual	catch	NA	NA	FALSE	FALSE	FALSE	FALSE	TRUE	0	FALSE	TRUE	TRUE
e18	2015	08	26	18	37	f	16	r	32.963595959	2	2	71.713196661	1.32637541182	left	visual	right	visual	target	voice	319.228102861	FALSE	FALSE	FALSE	FALSE	TRUE	0	FALSE	TRUE	TRUE
e18	2015	08	26	18	37	f	16	r	32.963595959	2	3	0.638140852971	1.25700222442	right	visual	left	visual	target	voice	363.249237183	FALSE	FALSE	FALSE	FALSE	TRUE	0	FALSE	TRUE	TRUE
e18	2015	08	26	18	37	f	16	r	32.963595959	2	4	0.408233691007	0.880845050019	left	tactile	left	visual	catch	NA	NA	FALSE	FALSE	FALSE	FALSE	TRUE	0	FALSE	TRUE	TRUE
e18	2015	08	26	18	37	f	16	r	32.963595959	2	5	0.611495670048	0.580640058948	left	tactile	right	tactile	target	voice	294.453343726	FALSE	FALSE	FALSE	FALSE	TRUE	0	FALSE	TRUE	TRUE
e18	2015	08	26	18	37	f	16	r	32.963595959	2	6	0.472501240962	1.19267659575	right	visual	right	visual	target	voice	380.449049931	FALSE	FALSE	FALSE	FALSE	TRUE	0	FALSE	TRUE	TRUE
e18	2015	08	26	18	37	f	16	r	32.963595959	2	7	0.424603599007	0.80666532521	left	tactile	left	tactile	target	voice	299.912035465	FALSE	FALSE	FALSE	FALSE	TRUE	0	FALSE	TRUE	TRUE
e18	2015	08	26	18	37	f	16	r	32.963595959	2	8	5.68288144399	0.605235193591	right	visual	left	tactile	target	voice	365.592073067	FALSE	FALSE	FALSE	FALSE	TRUE	0	FALSE	TRUE	TRUE
e18	2015	08	26	18	37	f	16	r	32.963595959	2	9	8.054321634	1.07169585291	right	tactile	right	tactile	target	voice	333.210845769	FALSE	FALSE	FALSE	FALSE	TRUE	0	FALSE	TRUE	TRUE
e18	2015	08	26	18	37	f	16	r	32.963595959	2	10	0.603560321964	0.746591882971	right	tactile	left	tactile	target	voice	345.030423719	FALSE	FALSE	FALSE	FALSE	TRUE	0	FALSE	TRUE	TRUE
e18	2015	08	26	18	37	f	16	r	32.963595959	2	11	0.498194243992	1.3585807948	right	tactile	right	tactile	target	voice	274.219748797	FALSE	FALSE	FALSE	FALSE	TRUE	0	FALSE	TRUE	TRUE
e18	2015	08	26	18	37	f	16	r	32.963595959	2	12	0.561283263029	1.17322090608	right	visual	right	visual	target	voice	371.948492597	FALSE	FALSE	FALSE	FALSE	TRUE	0	FALSE	TRUE	TRUE
e18	2015	08	26	18	37	f	16	r	32.963595959	2	13	0.399679697002	1.1934450092	right	tactile	left	tactile	target	voice	360.626261448	FALSE	FALSE	FALSE	FALSE	TRUE	0	FALSE	TRUE	TRUE
e18	2015	08	26	18	37	f	16	r	32.963595959	2	14	0.608214856999	1.11971882706	right	tactile	right	tactile	target	voice	249.433972582	FALSE	FALSE	FALSE	FALSE	TRUE	0	FALSE	TRUE	TRUE
e18	2015	08	26	18	37	f	16	r	32.963595959	2	15	0.461308747006	1.26185440796	left	tactile	right	visual	target	voice	348.791235709	FALSE	FALSE	FALSE	FALSE	TRUE	0	FALSE	TRUE	TRUE
e18	2015	08	26	18	37	f	16	r	32.963595959	2	16	0.404296754044	0.565173987999	right	visual	right	tactile	target	voice	297.264727706	FALSE	FALSE	FALSE	FALSE	TRUE	0	FALSE	TRUE	TRUE
e18	2015	08	26	18	37	f	16	r	32.963595959	2	17	0.495556493988	0.787136105102	right	tactile	right	tactile	catch	NA	NA	FALSE	FALSE	FALSE	FALSE	TRUE	0	FALSE	TRUE	TRUE
e18	2015	08	26	18	37	f	16	r	32.963595959	2	18	0.630407280987	0.835754290546	left	visual	left	visual	target	voice	349.590063037	FALSE	FALSE	FALSE	FALSE	TRUE	0	FALSE	TRUE	TRUE
e18	2015	08	26	18	37	f	16	r	32.963595959	2	19	0.492958948016	1.34627962784	left	visual	right	tactile	target	voice	342.344309844	FALSE	FALSE	FALSE	FALSE	TRUE	0	FALSE	TRUE	TRUE
e18	2015	08	26	18	37	f	16	r	32.963595959	2	20	0.425637006992	1.05692460144	right	visual	left	visual	target	voice	448.091566272	FALSE	FALSE	FALSE	FALSE	TRUE	0	FALSE	TRUE	TRUE
e18	2015	08	26	18	37	f	16	r	32.963595959	2	21	1.96048350103	0.866122814485	left	visual	left	tactile	target	voice	318.045433203	FALSE	FALSE	FALSE	FALSE	TRUE	0	FALSE	TRUE	TRUE
e18	2015	08	26	18	37	f	16	r	32.963595959	2	22	0.406404391979	1.23074070794	right	visual	right	tactile	target	voice	275.454258721	FALSE	FALSE	FALSE	FALSE	TRUE	0	FALSE	TRUE	TRUE
e18	2015	08	26	18	37	f	16	r	32.963595959	2	23	0.602959806973	0.761579132185	left	tactile	left	visual	target	voice	509.738703433	FALSE	FALSE	FALSE	FALSE	TRUE	0	FALSE	TRUE	TRUE
e18	2015	08	26	18	37	f	16	r	32.963595959	2	24	0.570452015032	0.680205163696	right	visual	right	tactile	target	voice	287.166373921	FALSE	FALSE	FALSE	FALSE	TRUE	0	FALSE	TRUE	TRUE
e18	2015	08	26	18	37	f	16	r	32.963595959	2	25	4.47867853503	0.507320508335	right	tactile	left	visual	catch	NA	NA	FALSE	FALSE	FALSE	FALSE	TRUE	0	FALSE	TRUE	TRUE
e18	2015	08	26	18	37	f	16	r	32.963595959	2	26	0.867014209041	0.606458103298	left	visual	left	tactile	target	voice	307.86887242	FALSE	FALSE	FALSE	FALSE	TRUE	0	FALSE	TRUE	TRUE
e18	2015	08	26	18	37	f	16	r	32.963595959	2	27	0.599888817989	0.891909837209	left	tactile	left	visual	target	voice	354.356580472	FALSE	FALSE	FALSE	FALSE	TRUE	0	FALSE	TRUE	TRUE
e18	2015	08	26	18	37	f	16	r	32.963595959	2	28	0.428879725048	1.11915983178	left	tactile	right	tactile	target	voice	264.259745891	FALSE	FALSE	FALSE	FALSE	TRUE	0	FALSE	TRUE	TRUE
e18	2015	08	26	18	37	f	16	r	32.963595959	2	29	0.412902167998	0.950778224876	left	visual	right	visual	target	voice	396.384116786	FALSE	FALSE	FALSE	FALSE	TRUE	0	FALSE	TRUE	TRUE
e18	2015	08	26	18	37	f	16	r	32.963595959	2	30	1.63479865598	1.39995503108	left	tactile	right	tactile	target	voice	254.487533646	FALSE	FALSE	FALSE	FALSE	TRUE	0	FALSE	TRUE	TRUE
e18	2015	08	26	18	37	f	16	r	32.963595959	2	31	0.660089348967	0.584039719995	right	visual	left	visual	target	voice	406.798408658	FALSE	FALSE	FALSE	FALSE	TRUE	0	FALSE	TRUE	TRUE
e18	2015	08	26	18	37	f	16	r	32.963595959	2	32	1.67843022395	1.2175604871	left	visual	left	tactile	target	voice	263.519043569	FALSE	FALSE	FALSE	FALSE	TRUE	0	FALSE	TRUE	TRUE
e18	2015	08	26	18	37	f	16	r	32.963595959	2	33	0.541268063011	1.19909752719	left	tactile	left	tactile	target	voice	344.544314488	FALSE	FALSE	FALSE	FALSE	TRUE	0	FALSE	TRUE	TRUE
e18	2015	08	26	18	37	f	16	r	32.963595959	2	34	1.779446434	0.555399267836	right	visual	left	visual	target	voice	432.706827822	FALSE	FALSE	FALSE	FALSE	TRUE	0	FALSE	TRUE	TRUE
e18	2015	08	26	18	37	f	16	r	32.963595959	2	35	0.571752368996	1.44472706132	left	visual	right	tactile	catch	NA	NA	FALSE	FALSE	FALSE	FALSE	TRUE	0	FALSE	TRUE	TRUE
e18	2015	08	26	18	37	f	16	r	32.963595959	2	36	0.593494091008	1.49634634011	left	tactile	right	visual	target	voice	353.74157055	FALSE	FALSE	FALSE	FALSE	TRUE	0	FALSE	TRUE	TRUE
e18	2015	08	26	18	37	f	16	r	32.963595959	2	37	3.99967947102	1.32293945418	left	visual	right	visual	catch	NA	NA	FALSE	FALSE	FALSE	FALSE	TRUE	0	FALSE	TRUE	TRUE
e18	2015	08	26	18	37	f	16	r	32.963595959	2	38	0.902098550985	0.8281783129	left	visual	right	tactile	target	voice	346.475688741	FALSE	FALSE	FALSE	FALSE	TRUE	0	FALSE	TRUE	TRUE
e18	2015	08	26	18	37	f	16	r	32.963595959	2	39	5.23271653801	1.29677082072	left	tactile	right	tactile	target	voice	246.379113873	FALSE	FALSE	FALSE	FALSE	TRUE	0	FALSE	TRUE	TRUE
e18	2015	08	26	18	37	f	16	r	32.963595959	2	40	1.72844229097	1.15129947892	left	visual	left	tactile	target	voice	255.905931757	FALSE	FALSE	FALSE	FALSE	TRUE	0	FALSE	TRUE	TRUE
e18	2015	08	26	18	37	f	16	r	23.393662643	2	41	8.38601452298	1.36023017945	left	visual	left	visual	catch	NA	NA	FALSE	FALSE	FALSE	FALSE	TRUE	0	FALSE	TRUE	TRUE
e18	2015	08	26	18	37	f	16	r	23.393662643	2	42	0.782368633954	1.04566539089	right	tactile	right	visual	target	voice	302.005182777	FALSE	FALSE	FALSE	FALSE	TRUE	0	FALSE	TRUE	TRUE
e18	2015	08	26	18	37	f	16	r	23.393662643	2	43	0.434748856991	1.13171317451	right	visual	left	visual	target	voice	406.66389215	FALSE	FALSE	FALSE	FALSE	TRUE	0	FALSE	TRUE	TRUE
e18	2015	08	26	18	37	f	16	r	23.393662643	2	44	5.76500973804	1.30363806659	right	visual	right	visual	catch	NA	NA	FALSE	FALSE	FALSE	FALSE	TRUE	0	FALSE	TRUE	TRUE
e18	2015	08	26	18	37	f	16	r	23.393662643	2	45	2.15833837999	0.817896746365	left	tactile	right	visual	target	voice	314.994258282	FALSE	FALSE	FALSE	FALSE	TRUE	0	FALSE	TRUE	TRUE
e18	2015	08	26	18	37	f	16	r	23.393662643	2	46	0.516214197967	0.567871407865	right	tactile	right	tactile	target	voice	578.471194836	FALSE	FALSE	FALSE	FALSE	TRUE	0	FALSE	TRUE	TRUE
e18	2015	08	26	18	37	f	16	r	23.393662643	2	47	0.583071136964	0.97013799311	right	tactile	left	tactile	target	voice	397.021744517	FALSE	FALSE	FALSE	FALSE	TRUE	0	FALSE	TRUE	TRUE
e18	2015	08	26	18	37	f	16	r	23.393662643	2	48	0.403681379976	1.37268209461	left	visual	left	visual	target	voice	380.594093003	FALSE	FALSE	FALSE	FALSE	TRUE	0	FALSE	TRUE	TRUE
e18	2015	08	26	18	37	f	16	r	23.393662643	2	49	0.405329509987	0.924649367251	left	visual	right	visual	target	voice	312.921640405	FALSE	FALSE	FALSE	FALSE	TRUE	0	FALSE	TRUE	TRUE
e18	2015	08	26	18	37	f	16	r	23.393662643	2	50	0.402142598992	1.16248087752	left	tactile	right	tactile	target	voice	NA	TRUE	FALSE	FALSE	FALSE	FALSE	0	FALSE	FALSE	FALSE
e18	2015	08	26	18	37	f	16	r	23.393662643	2	51	1.91642348998	0.593917710613	left	tactile	left	tactile	target	voice	330.735971103	FALSE	FALSE	FALSE	FALSE	TRUE	0	FALSE	TRUE	TRUE
e18	2015	08	26	18	37	f	16	r	23.393662643	2	52	0.403522185981	1.19076960677	right	visual	right	tactile	target	voice	300.641132868	FALSE	FALSE	FALSE	FALSE	TRUE	0	FALSE	TRUE	TRUE
e18	2015	08	26	18	37	f	16	r	23.393662643	2	53	0.464623617008	1.41180817032	right	tactile	right	visual	target	voice	485.115406336	FALSE	FALSE	FALSE	FALSE	TRUE	0	FALSE	TRUE	TRUE
e18	2015	08	26	18	37	f	16	r	23.393662643	2	54	0.414381054987	1.12339979382	left	visual	right	tactile	target	voice	325.803921849	FALSE	FALSE	FALSE	FALSE	TRUE	0	FALSE	TRUE	TRUE
e18	2015	08	26	18	37	f	16	r	23.393662643	2	55	0.412277408992	0.791408899176	left	tactile	left	visual	target	voice	336.011164472	FALSE	FALSE	FALSE	FALSE	TRUE	0	FALSE	TRUE	TRUE
e18	2015	08	26	18	37	f	16	r	23.393662643	2	56	1.373501833	1.04391575298	right	visual	right	tactile	target	voice	311.829549726	FALSE	FALSE	FALSE	FALSE	TRUE	0	FALSE	TRUE	TRUE
e18	2015	08	26	18	37	f	16	r	23.393662643	2	57	0.50757712702	1.48872602726	left	visual	right	visual	target	voice	322.786189383	FALSE	FALSE	FALSE	FALSE	TRUE	0	FALSE	TRUE	TRUE
e18	2015	08	26	18	37	f	16	r	23.393662643	2	58	6.45844890497	1.41045925216	right	visual	left	visual	target	voice	324.15918546	FALSE	FALSE	FALSE	FALSE	TRUE	0	FALSE	TRUE	TRUE
e18	2015	08	26	18	37	f	16	r	23.393662643	2	59	0.682662137027	1.13649198793	left	tactile	left	visual	target	voice	357.206954737	FALSE	FALSE	FALSE	FALSE	TRUE	0	FALSE	TRUE	TRUE
e18	2015	08	26	18	37	f	16	r	23.393662643	2	60	0.665253578045	1.04069405429	left	visual	right	tactile	target	voice	278.223412402	FALSE	FALSE	FALSE	FALSE	TRUE	0	FALSE	TRUE	TRUE
e18	2015	08	26	18	37	f	16	r	23.393662643	2	61	0.472371400974	0.522078831818	left	tactile	right	tactile	target	voice	325.729538861	FALSE	FALSE	FALSE	FALSE	TRUE	0	FALSE	TRUE	TRUE
e18	2015	08	26	18	37	f	16	r	23.393662643	2	62	0.406254320988	1.14231019257	right	visual	left	tactile	target	voice	249.515558069	FALSE	FALSE	FALSE	FALSE	TRUE	0	FALSE	TRUE	TRUE
e18	2015	08	26	18	37	f	16	r	23.393662643	2	63	0.410076870001	0.776798339654	right	visual	left	tactile	catch	NA	NA	FALSE	FALSE	FALSE	FALSE	TRUE	0	FALSE	TRUE	TRUE
e18	2015	08	26	18	37	f	16	r	23.393662643	2	64	1.65217942197	1.17528803656	left	tactile	left	tactile	target	voice	305.362222076	FALSE	FALSE	FALSE	FALSE	TRUE	0	FALSE	TRUE	TRUE
e18	2015	08	26	18	37	f	16	r	23.393662643	2	65	0.498037026962	1.1041380291	left	visual	right	visual	target	voice	342.25021553	FALSE	FALSE	FALSE	FALSE	TRUE	0	FALSE	TRUE	TRUE
e18	2015	08	26	18	37	f	16	r	23.393662643	2	66	0.435728259967	1.06395036284	left	tactile	right	visual	target	voice	425.587326812	FALSE	FALSE	FALSE	FALSE	TRUE	0	FALSE	TRUE	TRUE
e18	2015	08	26	18	37	f	16	r	23.393662643	2	67	0.499067116994	1.20349865773	left	tactile	right	tactile	catch	NA	NA	FALSE	FALSE	FALSE	FALSE	TRUE	0	FALSE	TRUE	TRUE
e18	2015	08	26	18	37	f	16	r	23.393662643	2	68	3.70585811499	0.725805313308	left	tactile	right	visual	target	voice	451.502436365	FALSE	FALSE	FALSE	FALSE	TRUE	0	FALSE	TRUE	TRUE
e18	2015	08	26	18	37	f	16	r	23.393662643	2	69	0.423107456998	1.3868144491	left	tactile	left	visual	target	voice	373.120445583	FALSE	FALSE	FALSE	FALSE	TRUE	0	FALSE	TRUE	TRUE
e18	2015	08	26	18	37	f	16	r	23.393662643	2	70	0.421178744989	0.544627519	right	tactile	left	tactile	catch	NA	NA	FALSE	FALSE	FALSE	FALSE	TRUE	0	FALSE	TRUE	TRUE
e18	2015	08	26	18	37	f	16	r	23.393662643	2	71	0.592741524044	0.749145081973	right	visual	left	tactile	target	voice	287.00882569	FALSE	FALSE	FALSE	FALSE	TRUE	0	FALSE	TRUE	TRUE
e18	2015	08	26	18	37	f	16	r	23.393662643	2	72	0.496150407009	1.32023918709	right	tactile	left	tactile	target	voice	306.140200526	FALSE	FALSE	FALSE	FALSE	TRUE	0	FALSE	TRUE	TRUE
e18	2015	08	26	18	37	f	16	r	23.393662643	2	73	0.466836676002	1.27727742837	left	tactile	right	visual	target	voice	344.795126293	FALSE	FALSE	FALSE	FALSE	TRUE	0	FALSE	TRUE	TRUE
e18	2015	08	26	18	37	f	16	r	23.393662643	2	74	0.42046437395	1.3495615398	right	tactile	left	visual	target	voice	355.755728786	FALSE	FALSE	FALSE	FALSE	TRUE	0	FALSE	TRUE	TRUE
e18	2015	08	26	18	37	f	16	r	23.393662643	2	75	0.397167438001	0.73632923099	left	tactile	right	tactile	target	voice	339.720858668	FALSE	FALSE	FALSE	FALSE	TRUE	0	FALSE	TRUE	TRUE
e18	2015	08	26	18	37	f	16	r	23.393662643	2	76	0.398771679029	0.566588461944	right	visual	right	visual	target	voice	NA	TRUE	FALSE	FALSE	FALSE	TRUE	0	FALSE	TRUE	FALSE
e18	2015	08	26	18	37	f	16	r	23.393662643	2	77	0.827746672963	0.991828549119	right	visual	right	tactile	target	voice	535.455188539	FALSE	FALSE	FALSE	FALSE	TRUE	0	FALSE	TRUE	TRUE
e18	2015	08	26	18	37	f	16	r	23.393662643	2	78	0.538339212013	0.584433546333	left	visual	left	tactile	target	voice	344.880293356	FALSE	FALSE	FALSE	FALSE	TRUE	0	FALSE	TRUE	TRUE
e18	2015	08	26	18	37	f	16	r	23.393662643	2	79	0.384394897032	1.23646322606	left	tactile	left	tactile	target	voice	333.089709573	FALSE	FALSE	FALSE	FALSE	TRUE	0	FALSE	TRUE	TRUE
e18	2015	08	26	18	37	f	16	r	23.393662643	2	80	0.402013830957	1.29496427886	left	tactile	right	tactile	target	voice	292.851146834	FALSE	FALSE	FALSE	FALSE	TRUE	0	FALSE	TRUE	TRUE
e18	2015	08	26	18	37	f	16	r	25.334078739	2	81	8.26212141599	0.956424982643	left	tactile	right	visual	target	voice	308.882883983	FALSE	FALSE	FALSE	FALSE	TRUE	0	FALSE	TRUE	TRUE
e18	2015	08	26	18	37	f	16	r	25.334078739	2	82	0.438144824991	0.522962715874	left	tactile	left	tactile	target	voice	269.167234772	FALSE	FALSE	FALSE	FALSE	TRUE	0	FALSE	TRUE	TRUE
e18	2015	08	26	18	37	f	16	r	25.334078739	2	83	0.399506018963	1.07903704633	right	tactile	left	tactile	target	voice	255.198789353	FALSE	FALSE	FALSE	FALSE	TRUE	0	FALSE	TRUE	TRUE
e18	2015	08	26	18	37	f	16	r	25.334078739	2	84	0.420438445988	0.549925832583	left	visual	left	visual	target	voice	344.145235023	FALSE	FALSE	FALSE	FALSE	FALSE	0	FALSE	FALSE	TRUE
e18	2015	08	26	18	37	f	16	r	25.334078739	2	85	0.402828280989	0.682269821464	right	tactile	left	visual	target	voice	291.390396189	FALSE	FALSE	FALSE	FALSE	TRUE	0	FALSE	TRUE	TRUE
e18	2015	08	26	18	37	f	16	r	25.334078739	2	86	0.405938620039	1.35768234287	left	visual	right	visual	target	voice	314.831077761	FALSE	FALSE	FALSE	FALSE	TRUE	0	FALSE	FALSE	TRUE
e18	2015	08	26	18	37	f	16	r	25.334078739	2	87	0.397731728037	0.714959209882	left	tactile	right	visual	catch	NA	NA	FALSE	FALSE	FALSE	FALSE	TRUE	0	FALSE	FALSE	TRUE
e18	2015	08	26	18	37	f	16	r	25.334078739	2	88	0.670632063993	1.1125332246	right	tactile	left	visual	target	voice	355.054300046	FALSE	FALSE	FALSE	FALSE	TRUE	0	FALSE	TRUE	TRUE
e18	2015	08	26	18	37	f	16	r	25.334078739	2	89	0.462370430003	0.590002716356	right	tactile	right	tactile	target	voice	341.565394308	FALSE	FALSE	FALSE	FALSE	TRUE	0	FALSE	TRUE	TRUE
e18	2015	08	26	18	37	f	16	r	25.334078739	2	90	1.96484017698	1.1319418487	left	visual	right	visual	target	voice	357.498727913	FALSE	FALSE	FALSE	FALSE	TRUE	0	FALSE	FALSE	TRUE
e18	2015	08	26	18	37	f	16	r	25.334078739	2	91	2.02709672396	0.867665787591	left	tactile	right	visual	target	voice	337.187720113	FALSE	FALSE	FALSE	FALSE	TRUE	0	FALSE	TRUE	TRUE
e18	2015	08	26	18	37	f	16	r	25.334078739	2	92	0.409756602021	0.75793878581	right	tactile	left	visual	target	voice	360.760998796	FALSE	FALSE	FALSE	FALSE	TRUE	0	FALSE	TRUE	TRUE
e18	2015	08	26	18	37	f	16	r	25.334078739	2	93	0.497541863006	0.918845657569	right	visual	right	visual	target	voice	333.2168911	FALSE	FALSE	FALSE	FALSE	FALSE	0	FALSE	FALSE	TRUE
e18	2015	08	26	18	37	f	16	r	25.334078739	2	94	2.84381708398	1.41721271036	left	visual	right	tactile	target	voice	256.074601319	FALSE	FALSE	FALSE	FALSE	TRUE	0	FALSE	TRUE	TRUE
e18	2015	08	26	18	37	f	16	r	25.334078739	2	95	0.589145425009	1.22271253521	right	visual	left	tactile	target	voice	261.946038459	FALSE	FALSE	FALSE	FALSE	TRUE	0	FALSE	TRUE	TRUE
e18	2015	08	26	18	37	f	16	r	25.334078739	2	96	0.47357457201	1.15491058614	left	visual	left	tactile	target	voice	295.736740518	FALSE	FALSE	FALSE	FALSE	TRUE	0	FALSE	TRUE	TRUE
e18	2015	08	26	18	37	f	16	r	25.334078739	2	97	0.433355763962	0.69023057492	left	visual	left	visual	target	voice	349.213011737	FALSE	FALSE	FALSE	FALSE	TRUE	0	FALSE	TRUE	TRUE
e18	2015	08	26	18	37	f	16	r	25.334078739	2	98	0.903492127953	0.832192791762	left	visual	left	tactile	target	voice	301.783138944	FALSE	FALSE	FALSE	FALSE	TRUE	0	FALSE	TRUE	TRUE
e18	2015	08	26	18	37	f	16	r	25.334078739	2	99	4.22775381303	1.40403855242	right	tactile	left	visual	target	voice	328.103493259	FALSE	FALSE	FALSE	FALSE	TRUE	0	FALSE	TRUE	TRUE
e18	2015	08	26	18	37	f	16	r	25.334078739	2	100	0.46570934495	0.758084471338	right	visual	left	tactile	target	voice	218.538883375	FALSE	FALSE	FALSE	FALSE	TRUE	0	FALSE	TRUE	TRUE
e18	2015	08	26	18	37	f	16	r	25.334078739	2	101	0.559465539991	1.13023934216	right	tactile	right	tactile	target	voice	248.816793493	FALSE	FALSE	FALSE	FALSE	TRUE	0	FALSE	TRUE	TRUE
e18	2015	08	26	18	37	f	16	r	25.334078739	2	102	0.540054347017	0.630955709378	right	visual	right	visual	target	voice	330.41149925	FALSE	FALSE	FALSE	FALSE	TRUE	0	FALSE	TRUE	TRUE
e18	2015	08	26	18	37	f	16	r	25.334078739	2	103	0.397192895995	0.643941995218	right	visual	right	tactile	catch	NA	NA	FALSE	FALSE	FALSE	FALSE	TRUE	0	FALSE	TRUE	TRUE
e18	2015	08	26	18	37	f	16	r	25.334078739	2	104	1.08340992697	0.943412980726	left	tactile	left	visual	target	voice	360.38551497	FALSE	FALSE	FALSE	FALSE	TRUE	0	FALSE	TRUE	TRUE
e18	2015	08	26	18	37	f	16	r	25.334078739	2	105	0.44903595699	0.639354087373	right	tactile	left	tactile	target	voice	409.576222301	FALSE	FALSE	FALSE	FALSE	TRUE	0	FALSE	TRUE	TRUE
e18	2015	08	26	18	37	f	16	r	25.334078739	2	106	0.481481117953	1.39764480328	right	tactile	right	visual	target	voice	393.023528391	FALSE	FALSE	FALSE	FALSE	TRUE	0	FALSE	FALSE	TRUE
e18	2015	08	26	18	37	f	16	r	25.334078739	2	107	0.505863335042	0.951437588064	left	tactile	right	visual	target	voice	288.749364612	FALSE	FALSE	FALSE	TRUE	TRUE	0	FALSE	TRUE	TRUE
e18	2015	08	26	18	37	f	16	r	25.334078739	2	108	1.26713242201	0.604799083152	right	visual	left	visual	target	voice	337.75089751	FALSE	FALSE	FALSE	FALSE	TRUE	0	FALSE	TRUE	TRUE
e18	2015	08	26	18	37	f	16	r	25.334078739	2	109	1.12877360597	0.520150098945	right	visual	right	tactile	target	voice	216.226271703	FALSE	FALSE	FALSE	FALSE	TRUE	0	FALSE	TRUE	TRUE
e18	2015	08	26	18	37	f	16	r	25.334078739	2	110	5.34774205199	1.25779579692	left	visual	left	visual	target	voice	263.467497774	FALSE	FALSE	FALSE	FALSE	TRUE	0	FALSE	TRUE	TRUE
e18	2015	08	26	18	37	f	16	r	25.334078739	2	111	0.468519159011	0.98141894514	right	tactile	right	visual	catch	NA	NA	FALSE	FALSE	FALSE	FALSE	TRUE	0	FALSE	TRUE	TRUE
e18	2015	08	26	18	37	f	16	r	25.334078739	2	112	0.668434883002	0.741718416355	right	tactile	right	visual	target	voice	416.351868305	FALSE	FALSE	FALSE	FALSE	TRUE	0	FALSE	TRUE	TRUE
e18	2015	08	26	18	37	f	16	r	25.334078739	2	113	0.43374321697	1.09681536302	left	tactile	left	tactile	target	voice	210.137227608	FALSE	FALSE	FALSE	FALSE	TRUE	0	FALSE	TRUE	TRUE
e18	2015	08	26	18	37	f	16	r	25.334078739	2	114	0.745274605986	0.863040406186	left	tactile	left	tactile	target	voice	253.650944447	FALSE	FALSE	FALSE	FALSE	TRUE	0	FALSE	TRUE	TRUE
e18	2015	08	26	18	37	f	16	r	25.334078739	2	115	0.406412930985	1.45085356835	left	tactile	left	visual	target	voice	448.890415311	FALSE	FALSE	FALSE	FALSE	TRUE	0	FALSE	TRUE	TRUE
e18	2015	08	26	18	37	f	16	r	25.334078739	2	116	0.405061581987	0.685405272507	right	tactile	left	visual	target	voice	353.677537118	FALSE	FALSE	FALSE	FALSE	TRUE	0	FALSE	FALSE	TRUE
e18	2015	08	26	18	37	f	16	r	25.334078739	2	117	0.410779475991	0.737485962233	left	visual	left	tactile	target	voice	214.514445397	FALSE	FALSE	FALSE	FALSE	TRUE	0	FALSE	TRUE	TRUE
e18	2015	08	26	18	37	f	16	r	25.334078739	2	118	0.463208645	1.43873407669	right	visual	left	tactile	target	voice	290.777869988	FALSE	FALSE	FALSE	FALSE	TRUE	0	FALSE	FALSE	TRUE
e18	2015	08	26	18	37	f	16	r	25.334078739	2	119	3.541948342	1.09169242158	right	tactile	left	tactile	target	voice	271.734997106	FALSE	FALSE	FALSE	FALSE	TRUE	0	FALSE	TRUE	TRUE
e18	2015	08	26	18	37	f	16	r	25.334078739	2	120	6.41099961801	0.828709011012	right	visual	right	visual	target	voice	344.443466631	FALSE	FALSE	FALSE	FALSE	TRUE	0	FALSE	TRUE	TRUE
e18	2015	08	26	18	37	f	16	r	22.59813704	2	121	0.901982852025	1.22779854239	left	tactile	left	tactile	catch	NA	NA	FALSE	FALSE	FALSE	FALSE	TRUE	0	FALSE	TRUE	TRUE
e18	2015	08	26	18	37	f	16	r	22.59813704	2	122	0.703030884964	1.22441104265	right	tactile	left	visual	target	voice	378.099732043	FALSE	FALSE	FALSE	FALSE	TRUE	0	FALSE	TRUE	TRUE
e18	2015	08	26	18	37	f	16	r	22.59813704	2	123	0.428301631007	0.886741718075	left	visual	right	tactile	target	voice	234.751504555	FALSE	FALSE	FALSE	FALSE	TRUE	0	FALSE	TRUE	TRUE
e18	2015	08	26	18	37	f	16	r	22.59813704	2	124	0.415132499998	1.19255392734	left	visual	right	tactile	target	voice	227.686395287	FALSE	FALSE	FALSE	FALSE	TRUE	0	FALSE	TRUE	TRUE
e18	2015	08	26	18	37	f	16	r	22.59813704	2	125	0.405630944006	1.19601265752	right	visual	right	visual	target	voice	287.359188136	FALSE	FALSE	FALSE	FALSE	TRUE	0	FALSE	TRUE	TRUE
e18	2015	08	26	18	37	f	16	r	22.59813704	2	126	0.406601161987	1.34084615694	right	visual	left	tactile	target	voice	219.849704707	FALSE	FALSE	FALSE	FALSE	TRUE	0	FALSE	TRUE	TRUE
e18	2015	08	26	18	37	f	16	r	22.59813704	2	127	0.421510313987	0.607503224466	right	tactile	right	visual	target	voice	179.338651244	FALSE	FALSE	FALSE	FALSE	TRUE	0	FALSE	TRUE	TRUE
e18	2015	08	26	18	37	f	16	r	22.59813704	2	128	1.58155192703	0.954614930146	right	visual	left	tactile	target	voice	206.052220485	FALSE	FALSE	FALSE	FALSE	TRUE	0	FALSE	TRUE	TRUE
e18	2015	08	26	18	37	f	16	r	22.59813704	2	129	3.60313053103	1.17058788033	left	visual	left	tactile	target	voice	164.571115398	FALSE	FALSE	FALSE	FALSE	TRUE	0	FALSE	TRUE	TRUE
e18	2015	08	26	18	37	f	16	r	22.59813704	2	130	10.219914124	0.706589669003	right	visual	right	tactile	target	voice	256.582135684	FALSE	FALSE	FALSE	FALSE	TRUE	0	FALSE	TRUE	TRUE
e18	2015	08	26	18	37	f	16	r	22.59813704	2	131	2.694927159	0.742402099099	right	visual	left	tactile	target	voice	230.30921258	FALSE	FALSE	FALSE	FALSE	TRUE	0	FALSE	TRUE	TRUE
e18	2015	08	26	18	37	f	16	r	22.59813704	2	132	0.553640166007	0.671407218397	right	tactile	left	tactile	target	voice	61.3289562752	FALSE	FALSE	FALSE	FALSE	TRUE	0	FALSE	TRUE	TRUE
e18	2015	08	26	18	37	f	16	r	22.59813704	2	133	20.240843768	1.31728840824	right	tactile	left	visual	target	voice	48.5503684613	FALSE	FALSE	FALSE	FALSE	TRUE	0	FALSE	TRUE	TRUE
e18	2015	08	26	18	37	f	16	r	22.59813704	2	134	14.383172072	0.672312138845	left	tactile	left	tactile	target	voice	240.896579809	FALSE	FALSE	FALSE	FALSE	TRUE	0	FALSE	FALSE	TRUE
e18	2015	08	26	18	37	f	16	r	22.59813704	2	135	0.587282241031	0.829661267146	right	tactile	right	visual	target	voice	713.228246488	FALSE	FALSE	FALSE	FALSE	TRUE	0	FALSE	TRUE	TRUE
e18	2015	08	26	18	37	f	16	r	22.59813704	2	136	0.495608422032	0.67735300439	right	tactile	right	visual	target	voice	271.467462298	FALSE	FALSE	FALSE	FALSE	TRUE	0	FALSE	TRUE	TRUE
e18	2015	08	26	18	37	f	16	r	22.59813704	2	137	0.419220904005	1.35892666547	left	tactile	left	visual	target	voice	326.906404225	FALSE	FALSE	FALSE	FALSE	TRUE	0	FALSE	TRUE	TRUE
e18	2015	08	26	18	37	f	16	r	22.59813704	2	138	0.400885162991	0.610647214032	left	visual	right	tactile	target	voice	147.236719611	FALSE	FALSE	FALSE	FALSE	TRUE	0	FALSE	TRUE	TRUE
e18	2015	08	26	18	37	f	16	r	22.59813704	2	139	0.503837774042	1.25408188494	right	tactile	right	tactile	target	voice	250.661427737	FALSE	FALSE	FALSE	FALSE	TRUE	0	FALSE	TRUE	TRUE
e18	2015	08	26	18	37	f	16	r	22.59813704	2	140	0.418727270968	1.48967841743	right	visual	right	visual	target	voice	354.835834238	FALSE	FALSE	FALSE	FALSE	TRUE	0	FALSE	TRUE	TRUE
e18	2015	08	26	18	37	f	16	r	22.59813704	2	141	0.456484742987	0.598214080892	left	tactile	left	visual	target	voice	369.285524765	FALSE	FALSE	FALSE	FALSE	TRUE	0	FALSE	TRUE	TRUE
e18	2015	08	26	18	37	f	16	r	22.59813704	2	142	0.403786712035	0.988243676714	right	visual	right	tactile	target	voice	302.447889931	FALSE	FALSE	FALSE	FALSE	TRUE	0	FALSE	TRUE	TRUE
e18	2015	08	26	18	37	f	16	r	22.59813704	2	143	0.396790282975	1.16205353487	left	visual	left	visual	target	voice	269.828034798	FALSE	FALSE	FALSE	FALSE	TRUE	0	FALSE	TRUE	TRUE
e18	2015	08	26	18	37	f	16	r	22.59813704	2	144	0.40835762705	1.43675888189	right	tactile	right	visual	target	voice	376.313203771	FALSE	FALSE	FALSE	FALSE	TRUE	0	FALSE	TRUE	TRUE
e18	2015	08	26	18	37	f	16	r	22.59813704	2	145	0.406624029973	1.36826413334	left	visual	right	visual	target	voice	315.118759288	FALSE	FALSE	FALSE	FALSE	TRUE	0	FALSE	TRUE	TRUE
e18	2015	08	26	18	37	f	16	r	22.59813704	2	146	0.853454280994	1.19449451914	left	visual	left	visual	target	voice	317.47922051	FALSE	FALSE	FALSE	FALSE	TRUE	0	FALSE	TRUE	TRUE
e18	2015	08	26	18	37	f	16	r	22.59813704	2	147	0.406952150981	1.10034699203	left	visual	right	tactile	target	voice	251.641665644	FALSE	FALSE	FALSE	FALSE	TRUE	0	FALSE	TRUE	TRUE
e18	2015	08	26	18	37	f	16	r	22.59813704	2	148	0.399755864986	0.700282922915	right	tactile	right	tactile	target	voice	236.665872741	FALSE	FALSE	FALSE	FALSE	TRUE	0	FALSE	TRUE	TRUE
e18	2015	08	26	18	37	f	16	r	22.59813704	2	149	0.404657751031	1.0813667919	left	visual	right	visual	target	voice	318.692683766	FALSE	FALSE	FALSE	FALSE	TRUE	0	FALSE	TRUE	TRUE
e18	2015	08	26	18	37	f	16	r	22.59813704	2	150	0.405504057999	1.47802033671	left	visual	left	visual	target	voice	212.550531956	FALSE	FALSE	FALSE	FALSE	TRUE	0	FALSE	TRUE	TRUE
e18	2015	08	26	18	37	f	16	r	22.59813704	2	151	0.409099932003	0.623197570283	right	tactile	right	visual	target	voice	140.077896358	FALSE	FALSE	FALSE	FALSE	TRUE	0	FALSE	FALSE	TRUE
e18	2015	08	26	18	37	f	16	r	22.59813704	2	152	0.532580106985	1.39613431733	right	tactile	left	tactile	target	voice	239.539126342	FALSE	FALSE	FALSE	FALSE	TRUE	0	FALSE	TRUE	TRUE
e18	2015	08	26	18	37	f	16	r	22.59813704	2	153	0.401620959979	0.825228168738	right	visual	left	visual	target	voice	262.362409907	FALSE	FALSE	FALSE	FALSE	TRUE	0	FALSE	TRUE	TRUE
e18	2015	08	26	18	37	f	16	r	22.59813704	2	154	0.412666031043	0.847528621718	left	visual	left	tactile	catch	voice	404.814089939	FALSE	FALSE	FALSE	FALSE	TRUE	0	FALSE	TRUE	TRUE
e18	2015	08	26	18	37	f	16	r	22.59813704	2	155	1.58482325904	0.901918243982	right	tactile	left	visual	target	voice	219.663219701	FALSE	FALSE	FALSE	FALSE	TRUE	0	FALSE	FALSE	TRUE
e18	2015	08	26	18	37	f	16	r	22.59813704	2	156	0.442386136972	0.721042327595	right	tactile	right	tactile	target	voice	174.198567052	FALSE	FALSE	FALSE	FALSE	TRUE	0	FALSE	TRUE	TRUE
e18	2015	08	26	18	37	f	16	r	22.59813704	2	157	0.98268976598	0.695122586939	right	visual	left	visual	target	voice	335.166172765	FALSE	FALSE	FALSE	FALSE	TRUE	0	FALSE	TRUE	TRUE
e18	2015	08	26	18	37	f	16	r	22.59813704	2	158	2.37126844702	0.843428865473	right	visual	right	visual	target	voice	342.414480168	FALSE	FALSE	FALSE	FALSE	TRUE	0	FALSE	TRUE	TRUE
e18	2015	08	26	18	37	f	16	r	22.59813704	2	159	0.447085855994	1.29911743513	left	tactile	right	tactile	target	voice	118.548711529	FALSE	FALSE	FALSE	FALSE	TRUE	0	FALSE	TRUE	TRUE
e18	2015	08	26	18	37	f	16	r	22.59813704	2	160	2.15496391896	1.42729208191	left	visual	left	visual	target	voice	283.902533702	FALSE	FALSE	FALSE	FALSE	TRUE	0	FALSE	TRUE	TRUE
e18	2015	08	26	18	37	f	16	r	66.606421184	3	1	1.038733305	0.900086144431	right	tactile	right	tactile	target	voice	241.636453196	FALSE	FALSE	FALSE	FALSE	TRUE	0	FALSE	TRUE	TRUE
e18	2015	08	26	18	37	f	16	r	66.606421184	3	2	0.435260088998	1.26786564241	right	tactile	right	tactile	catch	NA	NA	FALSE	FALSE	FALSE	FALSE	TRUE	0	FALSE	TRUE	TRUE
e18	2015	08	26	18	37	f	16	r	66.606421184	3	3	0.573645685974	0.848170861388	right	visual	right	visual	target	voice	283.552533248	FALSE	FALSE	FALSE	FALSE	TRUE	0	FALSE	TRUE	TRUE
e18	2015	08	26	18	37	f	16	r	66.606421184	3	4	0.400598546956	0.729573728042	left	visual	left	tactile	catch	voice	105.387711606	FALSE	FALSE	FALSE	FALSE	FALSE	0	FALSE	FALSE	TRUE
e18	2015	08	26	18	37	f	16	r	66.606421184	3	5	0.685051205975	0.654291638363	left	visual	left	visual	target	voice	267.486264289	FALSE	FALSE	FALSE	FALSE	TRUE	0	FALSE	TRUE	TRUE
e18	2015	08	26	18	37	f	16	r	66.606421184	3	6	0.389422357024	0.517740102794	left	tactile	left	tactile	target	voice	207.083016867	FALSE	FALSE	FALSE	FALSE	TRUE	0	FALSE	TRUE	TRUE
e18	2015	08	26	18	37	f	16	r	66.606421184	3	7	1.35277827602	0.758377156631	right	tactile	right	tactile	target	voice	273.259987007	FALSE	FALSE	FALSE	FALSE	TRUE	0	FALSE	FALSE	TRUE
e18	2015	08	26	18	37	f	16	r	66.606421184	3	8	0.422351907997	0.6672706218	right	tactile	right	visual	target	voice	393.360391841	FALSE	FALSE	FALSE	FALSE	FALSE	0	FALSE	FALSE	TRUE
e18	2015	08	26	18	37	f	16	r	66.606421184	3	9	0.952718163957	0.974289397902	left	tactile	left	tactile	target	voice	275.678360777	FALSE	FALSE	FALSE	FALSE	TRUE	0	FALSE	TRUE	TRUE
e18	2015	08	26	18	37	f	16	r	66.606421184	3	10	2.81781798799	1.47677958669	right	visual	right	visual	target	voice	NA	TRUE	FALSE	FALSE	FALSE	FALSE	0	FALSE	FALSE	FALSE
e18	2015	08	26	18	37	f	16	r	66.606421184	3	11	4.70584079804	0.960501327845	right	visual	left	visual	target	voice	285.453314835	FALSE	FALSE	FALSE	FALSE	TRUE	0	FALSE	TRUE	TRUE
e18	2015	08	26	18	37	f	16	r	66.606421184	3	12	0.483565341972	0.969858072366	left	visual	right	visual	target	voice	266.352974286	FALSE	FALSE	FALSE	FALSE	TRUE	0	FALSE	FALSE	TRUE
e18	2015	08	26	18	37	f	16	r	66.606421184	3	13	0.397552148963	1.2141136931	left	visual	right	tactile	target	voice	190.496261581	FALSE	FALSE	FALSE	FALSE	TRUE	0	FALSE	FALSE	TRUE
e18	2015	08	26	18	37	f	16	r	66.606421184	3	14	11.69929693	0.715832185016	right	visual	right	tactile	target	voice	239.43330464	FALSE	FALSE	FALSE	FALSE	TRUE	0	FALSE	TRUE	TRUE
e18	2015	08	26	18	37	f	16	r	66.606421184	3	15	0.535141883011	0.778797273768	right	tactile	left	tactile	target	voice	210.365977895	FALSE	FALSE	FALSE	FALSE	TRUE	0	FALSE	TRUE	TRUE
e18	2015	08	26	18	37	f	16	r	66.606421184	3	16	0.404368950985	1.27500106756	right	visual	right	tactile	target	voice	217.196456098	FALSE	FALSE	FALSE	FALSE	TRUE	0	FALSE	TRUE	TRUE
e18	2015	08	26	18	37	f	16	r	66.606421184	3	17	0.477027983987	0.50823668354	right	visual	right	visual	target	voice	233.096064068	FALSE	FALSE	FALSE	FALSE	TRUE	0	FALSE	TRUE	TRUE
e18	2015	08	26	18	37	f	16	r	66.606421184	3	18	0.459627419012	0.790865475334	left	tactile	right	tactile	target	voice	35.7249883236	FALSE	FALSE	FALSE	FALSE	TRUE	0	FALSE	TRUE	TRUE
e18	2015	08	26	18	37	f	16	r	66.606421184	3	19	0.553398313001	0.801459304047	left	tactile	left	visual	target	voice	40.5835786369	FALSE	FALSE	FALSE	FALSE	TRUE	0	FALSE	FALSE	TRUE
e18	2015	08	26	18	37	f	16	r	66.606421184	3	20	0.579457871965	1.20463872392	right	visual	left	tactile	target	voice	242.701064737	FALSE	FALSE	FALSE	FALSE	TRUE	0	FALSE	TRUE	TRUE
e18	2015	08	26	18	37	f	16	r	66.606421184	3	21	0.383780486009	0.576294701126	right	visual	left	tactile	target	voice	199.203434517	FALSE	FALSE	FALSE	FALSE	TRUE	0	FALSE	TRUE	TRUE
e18	2015	08	26	18	37	f	16	r	66.606421184	3	22	0.409265364986	0.97163626108	left	tactile	right	visual	target	voice	204.331322573	FALSE	FALSE	FALSE	FALSE	TRUE	0	FALSE	TRUE	TRUE
e18	2015	08	26	18	37	f	16	r	66.606421184	3	23	0.398702721985	1.04158180658	right	tactile	right	visual	target	voice	170.542649052	FALSE	FALSE	FALSE	FALSE	TRUE	0	FALSE	TRUE	TRUE
e18	2015	08	26	18	37	f	16	r	66.606421184	3	24	0.402277066023	1.06100456291	left	tactile	left	visual	target	voice	310.5956238	FALSE	FALSE	FALSE	FALSE	TRUE	0	FALSE	TRUE	TRUE
e18	2015	08	26	18	37	f	16	r	66.606421184	3	25	0.406243421021	0.780431232591	left	visual	left	visual	catch	NA	NA	FALSE	FALSE	FALSE	FALSE	TRUE	0	FALSE	FALSE	TRUE
e18	2015	08	26	18	37	f	16	r	66.606421184	3	26	1.24106680101	1.02569468225	left	tactile	left	tactile	target	voice	184.13714238	FALSE	FALSE	FALSE	FALSE	TRUE	0	FALSE	TRUE	TRUE
e18	2015	08	26	18	37	f	16	r	66.606421184	3	27	0.510028088	1.08656503554	left	visual	right	tactile	target	voice	185.046909144	FALSE	FALSE	FALSE	FALSE	TRUE	0	FALSE	TRUE	TRUE
e18	2015	08	26	18	37	f	16	r	66.606421184	3	28	0.40165636997	1.04747935487	right	visual	left	tactile	catch	voice	181.925696786	FALSE	FALSE	FALSE	FALSE	TRUE	0	FALSE	FALSE	TRUE
e18	2015	08	26	18	37	f	16	r	66.606421184	3	29	0.728916734981	0.720767713465	left	visual	left	tactile	target	voice	247.838591167	FALSE	FALSE	FALSE	FALSE	TRUE	0	FALSE	TRUE	TRUE
e18	2015	08	26	18	37	f	16	r	66.606421184	3	30	0.806407926953	0.624332013234	right	visual	right	visual	target	voice	332.601459406	FALSE	FALSE	FALSE	FALSE	TRUE	0	FALSE	TRUE	TRUE
e18	2015	08	26	18	37	f	16	r	66.606421184	3	31	2.24822692398	1.04034988605	right	visual	left	tactile	target	voice	242.222688626	FALSE	FALSE	FALSE	FALSE	TRUE	0	FALSE	TRUE	TRUE
e18	2015	08	26	18	37	f	16	r	66.606421184	3	32	0.415883481968	0.95112960998	left	visual	right	visual	target	voice	303.288215713	FALSE	FALSE	FALSE	FALSE	TRUE	0	FALSE	TRUE	TRUE
e18	2015	08	26	18	37	f	16	r	66.606421184	3	33	0.408511464018	0.509466761088	right	visual	right	tactile	target	voice	252.205818542	FALSE	FALSE	FALSE	FALSE	TRUE	0	FALSE	TRUE	TRUE
e18	2015	08	26	18	37	f	16	r	66.606421184	3	34	0.491210884997	1.481435053	left	visual	right	visual	target	voice	246.327644621	FALSE	FALSE	FALSE	FALSE	TRUE	0	FALSE	TRUE	TRUE
e18	2015	08	26	18	37	f	16	r	66.606421184	3	35	0.454668314022	1.20696127792	left	tactile	right	visual	target	voice	214.142273704	FALSE	FALSE	FALSE	FALSE	TRUE	0	FALSE	TRUE	TRUE
e18	2015	08	26	18	37	f	16	r	66.606421184	3	36	0.412801689992	1.32741776837	right	tactile	left	visual	target	voice	279.534397298	FALSE	FALSE	FALSE	FALSE	TRUE	0	FALSE	TRUE	TRUE
e18	2015	08	26	18	37	f	16	r	66.606421184	3	37	0.396284757997	1.22712739185	left	tactile	right	visual	target	voice	286.903517786	FALSE	FALSE	FALSE	FALSE	TRUE	0	FALSE	TRUE	TRUE
e18	2015	08	26	18	37	f	16	r	66.606421184	3	38	0.408237026015	1.13192003627	left	tactile	right	visual	target	voice	213.902430376	FALSE	FALSE	FALSE	FALSE	TRUE	0	FALSE	TRUE	TRUE
e18	2015	08	26	18	37	f	16	r	66.606421184	3	39	0.399201579043	1.0711884888	left	tactile	right	tactile	catch	NA	NA	FALSE	FALSE	FALSE	FALSE	TRUE	0	FALSE	TRUE	TRUE
e18	2015	08	26	18	37	f	16	r	66.606421184	3	40	1.11933076801	0.896555183721	left	tactile	right	tactile	target	voice	256.825267919	FALSE	FALSE	FALSE	FALSE	TRUE	0	FALSE	TRUE	TRUE
e18	2015	08	26	18	37	f	16	r	8.18583801703	3	41	4.22599309898	0.602359206976	right	visual	left	visual	target	voice	306.038542651	FALSE	FALSE	FALSE	FALSE	TRUE	0	FALSE	TRUE	TRUE
e18	2015	08	26	18	37	f	16	r	8.18583801703	3	42	0.395877677016	0.741460788048	right	tactile	right	visual	target	voice	283.868079598	FALSE	FALSE	FALSE	FALSE	TRUE	0	FALSE	TRUE	TRUE
e18	2015	08	26	18	37	f	16	r	8.18583801703	3	43	0.400566862023	1.10715850575	right	visual	left	visual	catch	NA	NA	FALSE	FALSE	FALSE	FALSE	TRUE	0	FALSE	TRUE	TRUE
e18	2015	08	26	18	37	f	16	r	8.18583801703	3	44	0.437007169996	0.706505931095	right	visual	right	visual	target	voice	237.425321538	FALSE	FALSE	FALSE	FALSE	TRUE	0	FALSE	TRUE	TRUE
e18	2015	08	26	18	37	f	16	r	8.18583801703	3	45	0.418023026024	1.2648360041	left	visual	left	visual	target	voice	281.140515523	FALSE	FALSE	FALSE	FALSE	TRUE	0	FALSE	TRUE	TRUE
e18	2015	08	26	18	37	f	16	r	8.18583801703	3	46	0.403530201002	0.98610136057	left	tactile	left	tactile	target	voice	371.014376055	FALSE	FALSE	FALSE	FALSE	TRUE	0	FALSE	TRUE	TRUE
e18	2015	08	26	18	37	f	16	r	8.18583801703	3	47	3.35777502303	0.674210243411	right	tactile	left	tactile	catch	NA	NA	FALSE	FALSE	FALSE	FALSE	TRUE	0	FALSE	TRUE	TRUE
e18	2015	08	26	18	37	f	16	r	8.18583801703	3	48	0.512008240039	1.26177638239	left	visual	right	visual	catch	NA	NA	FALSE	FALSE	FALSE	FALSE	TRUE	0	FALSE	TRUE	TRUE
e18	2015	08	26	18	37	f	16	r	8.18583801703	3	49	0.653354601993	0.551787174577	left	visual	left	tactile	target	voice	291.856072086	FALSE	FALSE	FALSE	FALSE	TRUE	0	FALSE	TRUE	TRUE
e18	2015	08	26	18	37	f	16	r	8.18583801703	3	50	0.530660928984	1.3338039829	right	tactile	left	visual	target	voice	371.584432782	FALSE	FALSE	FALSE	FALSE	TRUE	0	FALSE	TRUE	TRUE
e18	2015	08	26	18	37	f	16	r	8.18583801703	3	51	2.348274344	0.563801127518	left	visual	left	visual	target	voice	334.732348099	FALSE	FALSE	FALSE	FALSE	TRUE	0	FALSE	TRUE	TRUE
e18	2015	08	26	18	37	f	16	r	8.18583801703	3	52	0.447009978991	1.48217477861	right	tactile	right	visual	target	voice	370.290388062	FALSE	FALSE	FALSE	FALSE	TRUE	0	FALSE	TRUE	TRUE
e18	2015	08	26	18	37	f	16	r	8.18583801703	3	53	0.444590071973	1.19222517115	right	tactile	left	tactile	target	voice	328.292327526	FALSE	FALSE	FALSE	FALSE	TRUE	0	FALSE	TRUE	TRUE
e18	2015	08	26	18	37	f	16	r	8.18583801703	3	54	0.427618358051	0.851138502487	left	visual	right	tactile	target	voice	180.372504226	FALSE	FALSE	FALSE	FALSE	TRUE	0	FALSE	TRUE	TRUE
e18	2015	08	26	18	37	f	16	r	8.18583801703	3	55	0.409301202977	1.20915216533	left	visual	right	tactile	target	voice	241.273424355	FALSE	FALSE	FALSE	FALSE	TRUE	0	FALSE	TRUE	TRUE
e18	2015	08	26	18	37	f	16	r	8.18583801703	3	56	0.40898754698	1.22400505027	left	tactile	right	tactile	target	voice	267.478317372	FALSE	FALSE	FALSE	FALSE	TRUE	0	FALSE	TRUE	TRUE
e18	2015	08	26	18	37	f	16	r	8.18583801703	3	57	0.629587508971	0.556421237628	right	visual	right	tactile	target	voice	293.265446031	FALSE	FALSE	FALSE	FALSE	TRUE	0	FALSE	TRUE	TRUE
e18	2015	08	26	18	37	f	16	r	8.18583801703	3	58	0.446658674977	1.25651945412	left	tactile	right	visual	catch	NA	NA	FALSE	FALSE	FALSE	FALSE	TRUE	0	FALSE	TRUE	TRUE
e18	2015	08	26	18	37	f	16	r	8.18583801703	3	59	0.738392459985	0.661050248268	right	tactile	right	visual	target	voice	637.970656389	FALSE	FALSE	FALSE	FALSE	TRUE	0	FALSE	TRUE	TRUE
e18	2015	08	26	18	37	f	16	r	8.18583801703	3	60	1.34576542996	0.69760035576	right	visual	left	visual	target	voice	306.218851882	FALSE	FALSE	FALSE	FALSE	TRUE	0	FALSE	TRUE	TRUE
e18	2015	08	26	18	37	f	16	r	8.18583801703	3	61	0.386599936988	1.1576945495	left	visual	right	tactile	target	voice	294.848316174	FALSE	FALSE	FALSE	FALSE	TRUE	0	FALSE	TRUE	TRUE
e18	2015	08	26	18	37	f	16	r	8.18583801703	3	62	0.422911706031	1.0987627809	right	visual	left	tactile	target	voice	257.275316748	FALSE	FALSE	FALSE	FALSE	TRUE	0	FALSE	TRUE	TRUE
e18	2015	08	26	18	37	f	16	r	8.18583801703	3	63	0.424160541035	1.23917004852	left	tactile	right	tactile	target	voice	312.970939151	FALSE	FALSE	FALSE	FALSE	TRUE	0	FALSE	TRUE	TRUE
e18	2015	08	26	18	37	f	16	r	8.18583801703	3	64	0.406600298011	0.50720376942	right	tactile	right	tactile	target	voice	380.092764215	FALSE	FALSE	FALSE	FALSE	TRUE	0	FALSE	TRUE	TRUE
e18	2015	08	26	18	37	f	16	r	8.18583801703	3	65	0.408975459985	1.13737817809	right	tactile	right	tactile	target	voice	334.563980636	FALSE	FALSE	FALSE	FALSE	TRUE	0	FALSE	TRUE	TRUE
e18	2015	08	26	18	37	f	16	r	8.18583801703	3	66	0.403502350964	0.709826466475	right	visual	right	tactile	target	voice	269.587428193	FALSE	FALSE	FALSE	FALSE	TRUE	0	FALSE	TRUE	TRUE
e18	2015	08	26	18	37	f	16	r	8.18583801703	3	67	0.414103568997	1.45696993412	right	visual	right	tactile	target	voice	250.681550533	FALSE	FALSE	FALSE	FALSE	TRUE	0	FALSE	TRUE	TRUE
e18	2015	08	26	18	37	f	16	r	8.18583801703	3	68	0.411225913966	1.3497030205	left	visual	left	visual	target	voice	276.780301239	FALSE	FALSE	FALSE	FALSE	TRUE	0	FALSE	TRUE	TRUE
e18	2015	08	26	18	37	f	16	r	8.18583801703	3	69	3.90110407298	1.29577968054	left	tactile	left	visual	catch	NA	NA	FALSE	FALSE	FALSE	FALSE	TRUE	0	FALSE	TRUE	TRUE
e18	2015	08	26	18	37	f	16	r	8.18583801703	3	70	1.07119183196	1.32789294291	right	visual	left	tactile	target	voice	297.150124738	FALSE	FALSE	FALSE	FALSE	TRUE	0	FALSE	TRUE	TRUE
e18	2015	08	26	18	37	f	16	r	8.18583801703	3	71	0.40111086698	0.660978072947	right	tactile	left	visual	target	voice	NA	TRUE	FALSE	FALSE	FALSE	TRUE	0	FALSE	TRUE	FALSE
e18	2015	08	26	18	37	f	16	r	8.18583801703	3	72	1.01273004297	1.47979074192	left	visual	left	tactile	target	voice	299.69990172	FALSE	FALSE	FALSE	FALSE	TRUE	0	FALSE	TRUE	TRUE
e18	2015	08	26	18	37	f	16	r	8.18583801703	3	73	0.402812057	1.37856015895	right	tactile	left	tactile	target	voice	308.580095705	FALSE	FALSE	FALSE	FALSE	TRUE	0	FALSE	FALSE	TRUE
e18	2015	08	26	18	37	f	16	r	8.18583801703	3	74	0.615997580986	0.717710746361	left	visual	right	tactile	target	voice	229.671734327	FALSE	FALSE	FALSE	FALSE	TRUE	0	FALSE	TRUE	TRUE
e18	2015	08	26	18	37	f	16	r	8.18583801703	3	75	0.400650366035	1.42783593796	left	visual	right	visual	target	voice	299.647055741	FALSE	FALSE	FALSE	FALSE	TRUE	0	FALSE	TRUE	TRUE
e18	2015	08	26	18	37	f	16	r	8.18583801703	3	76	0.408465116983	0.707586133861	right	tactile	left	visual	target	voice	342.748713796	FALSE	FALSE	FALSE	FALSE	TRUE	0	FALSE	TRUE	TRUE
e18	2015	08	26	18	37	f	16	r	8.18583801703	3	77	0.422757791996	1.42561825501	left	tactile	right	visual	target	voice	352.643380698	FALSE	FALSE	FALSE	FALSE	TRUE	0	FALSE	TRUE	TRUE
e18	2015	08	26	18	37	f	16	r	8.18583801703	3	78	0.398351631011	1.45796418712	left	tactile	left	tactile	target	voice	349.002460542	FALSE	FALSE	FALSE	FALSE	TRUE	0	FALSE	TRUE	TRUE
e18	2015	08	26	18	37	f	16	r	8.18583801703	3	79	0.452865178988	1.42206011127	right	tactile	right	tactile	target	voice	NA	TRUE	FALSE	FALSE	FALSE	TRUE	0	FALSE	TRUE	FALSE
e18	2015	08	26	18	37	f	16	r	8.18583801703	3	80	0.91808555997	0.673223255101	right	tactile	left	visual	catch	NA	NA	FALSE	FALSE	FALSE	FALSE	TRUE	0	FALSE	TRUE	TRUE
e18	2015	08	26	18	37	f	16	r	29.892386043	3	81	2.4151254	0.694130083764	left	visual	right	visual	target	voice	292.769658845	FALSE	FALSE	FALSE	FALSE	TRUE	0	FALSE	TRUE	TRUE
e18	2015	08	26	18	37	f	16	r	29.892386043	3	82	0.689468772965	0.860867498515	right	visual	right	tactile	catch	NA	NA	FALSE	FALSE	FALSE	FALSE	TRUE	0	FALSE	TRUE	TRUE
e18	2015	08	26	18	37	f	16	r	29.892386043	3	83	0.644931155024	0.972062109819	left	tactile	right	tactile	target	voice	286.71884886	FALSE	FALSE	FALSE	FALSE	FALSE	0	FALSE	FALSE	TRUE
e18	2015	08	26	18	37	f	16	r	29.892386043	3	84	0.401205205999	0.527236754861	left	visual	right	tactile	target	voice	325.762634748	FALSE	FALSE	FALSE	FALSE	TRUE	0	FALSE	TRUE	TRUE
e18	2015	08	26	18	37	f	16	r	29.892386043	3	85	2.85982617998	1.36636747992	left	visual	right	visual	target	voice	283.256648807	FALSE	FALSE	FALSE	FALSE	TRUE	0	FALSE	TRUE	TRUE
e18	2015	08	26	18	37	f	16	r	29.892386043	3	86	6.34466987499	0.748517385755	left	visual	right	tactile	target	voice	243.109607953	FALSE	FALSE	FALSE	FALSE	FALSE	0	FALSE	FALSE	TRUE
e18	2015	08	26	18	37	f	16	r	29.892386043	3	87	0.399296729011	1.26781004398	left	visual	left	visual	target	voice	345.655296696	FALSE	FALSE	FALSE	FALSE	TRUE	0	FALSE	TRUE	TRUE
e18	2015	08	26	18	37	f	16	r	29.892386043	3	88	0.490402630006	1.09623561645	left	tactile	left	visual	target	voice	308.975477237	FALSE	FALSE	FALSE	FALSE	TRUE	0	FALSE	TRUE	TRUE
e18	2015	08	26	18	37	f	16	r	29.892386043	3	89	0.40077216801	0.982466584495	right	visual	left	tactile	target	voice	219.20991817	FALSE	FALSE	FALSE	FALSE	TRUE	0	FALSE	TRUE	TRUE
e18	2015	08	26	18	37	f	16	r	29.892386043	3	90	0.405460939975	1.49815311781	right	visual	left	visual	target	voice	260.590406833	FALSE	FALSE	FALSE	FALSE	TRUE	0	FALSE	TRUE	TRUE
e18	2015	08	26	18	37	f	16	r	29.892386043	3	91	0.403136541019	1.3821771632	right	tactile	left	visual	target	voice	302.077837463	FALSE	FALSE	FALSE	FALSE	TRUE	0	FALSE	TRUE	TRUE
e18	2015	08	26	18	37	f	16	r	29.892386043	3	92	0.400819304981	0.943174584965	left	tactile	left	visual	target	voice	329.848946712	FALSE	FALSE	FALSE	FALSE	TRUE	0	FALSE	TRUE	TRUE
e18	2015	08	26	18	37	f	16	r	29.892386043	3	93	0.402166058018	1.06829330385	left	tactile	right	visual	target	voice	381.280268834	FALSE	FALSE	FALSE	FALSE	TRUE	0	FALSE	TRUE	TRUE
e18	2015	08	26	18	37	f	16	r	29.892386043	3	94	3.75517399097	1.23138781543	right	visual	right	tactile	target	voice	NA	TRUE	FALSE	FALSE	FALSE	FALSE	0	FALSE	FALSE	FALSE
e18	2015	08	26	18	37	f	16	r	29.892386043	3	95	1.781696658	1.20962828226	right	tactile	left	tactile	target	voice	263.296973368	FALSE	FALSE	FALSE	FALSE	FALSE	0	FALSE	FALSE	TRUE
e18	2015	08	26	18	37	f	16	r	29.892386043	3	96	0.429787130037	0.756913556212	left	tactile	right	visual	target	voice	376.938251429	FALSE	FALSE	FALSE	FALSE	TRUE	0	FALSE	TRUE	TRUE
e18	2015	08	26	18	37	f	16	r	29.892386043	3	97	0.402944095025	1.00983274725	left	visual	left	tactile	target	voice	279.95375148	FALSE	FALSE	FALSE	FALSE	TRUE	0	FALSE	TRUE	TRUE
e18	2015	08	26	18	37	f	16	r	29.892386043	3	98	0.398625271046	0.506920341724	right	tactile	left	tactile	target	voice	331.375320908	FALSE	FALSE	FALSE	FALSE	FALSE	0	FALSE	FALSE	TRUE
e18	2015	08	26	18	37	f	16	r	29.892386043	3	99	1.21293539897	0.871471035008	right	tactile	left	tactile	target	voice	320.349069661	FALSE	FALSE	FALSE	FALSE	FALSE	0	FALSE	FALSE	TRUE
e18	2015	08	26	18	37	f	16	r	29.892386043	3	100	0.401141413022	1.10203615686	left	visual	right	visual	target	voice	345.174129761	FALSE	FALSE	FALSE	FALSE	TRUE	0	FALSE	TRUE	TRUE
e18	2015	08	26	18	37	f	16	r	29.892386043	3	101	0.400605682982	1.39601723347	left	visual	left	tactile	target	voice	313.513503177	FALSE	FALSE	FALSE	FALSE	TRUE	0	FALSE	TRUE	TRUE
e18	2015	08	26	18	37	f	16	r	29.892386043	3	102	0.418983753014	0.671994772563	right	visual	left	visual	target	voice	325.297938078	FALSE	FALSE	FALSE	FALSE	TRUE	0	FALSE	TRUE	TRUE
e18	2015	08	26	18	37	f	16	r	29.892386043	3	103	0.43829743797	1.1238222233	left	tactile	right	tactile	target	voice	296.483866347	FALSE	FALSE	FALSE	FALSE	TRUE	0	FALSE	TRUE	TRUE
e18	2015	08	26	18	37	f	16	r	29.892386043	3	104	0.405447974044	1.16236756241	left	visual	left	visual	target	voice	306.002252211	FALSE	FALSE	FALSE	FALSE	TRUE	0	FALSE	TRUE	TRUE
e18	2015	08	26	18	37	f	16	r	29.892386043	3	105	0.400224878045	0.620071510688	right	tactile	right	visual	target	voice	551.403860969	FALSE	FALSE	FALSE	FALSE	TRUE	0	FALSE	TRUE	TRUE
e18	2015	08	26	18	37	f	16	r	29.892386043	3	106	1.36656615202	0.875936463758	left	visual	left	tactile	target	voice	225.799379929	FALSE	FALSE	FALSE	FALSE	TRUE	0	FALSE	TRUE	TRUE
e18	2015	08	26	18	37	f	16	r	29.892386043	3	107	0.403540685016	0.881222015163	right	tactile	right	tactile	target	voice	243.691944459	FALSE	FALSE	FALSE	FALSE	TRUE	0	FALSE	TRUE	TRUE
e18	2015	08	26	18	37	f	16	r	29.892386043	3	108	0.447961404047	1.41503076961	left	tactile	left	tactile	target	voice	306.513828051	FALSE	FALSE	FALSE	FALSE	TRUE	0	FALSE	TRUE	TRUE
e18	2015	08	26	18	37	f	16	r	29.892386043	3	109	1.29116055899	0.765665247719	left	visual	right	visual	target	voice	385.478080891	FALSE	FALSE	FALSE	FALSE	TRUE	0	FALSE	FALSE	TRUE
e18	2015	08	26	18	37	f	16	r	29.892386043	3	110	0.406430806965	0.574411834881	left	visual	right	tactile	catch	NA	NA	FALSE	FALSE	FALSE	FALSE	TRUE	0	FALSE	TRUE	TRUE
e18	2015	08	26	18	37	f	16	r	29.892386043	3	111	0.814370788052	0.689034365398	right	tactile	left	tactile	target	voice	305.359359249	FALSE	FALSE	FALSE	FALSE	TRUE	0	FALSE	TRUE	TRUE
e18	2015	08	26	18	37	f	16	r	29.892386043	3	112	0.396556131949	0.997468484481	left	tactile	left	visual	target	voice	372.007368191	FALSE	FALSE	FALSE	FALSE	TRUE	0	FALSE	TRUE	TRUE
e18	2015	08	26	18	37	f	16	r	29.892386043	3	113	0.401790223026	1.12652986363	left	tactile	left	visual	target	voice	363.413687039	FALSE	FALSE	FALSE	FALSE	TRUE	0	FALSE	TRUE	TRUE
e18	2015	08	26	18	37	f	16	r	29.892386043	3	114	5.44023004198	0.882805201989	right	tactile	right	visual	target	voice	379.46875568	FALSE	FALSE	FALSE	FALSE	TRUE	0	FALSE	TRUE	TRUE
e18	2015	08	26	18	37	f	16	r	29.892386043	3	115	0.399618289026	1.11890204083	left	visual	left	visual	target	voice	239.10812079	FALSE	FALSE	FALSE	FALSE	TRUE	0	FALSE	TRUE	TRUE
e18	2015	08	26	18	37	f	16	r	29.892386043	3	116	0.416341583012	0.610716091408	right	visual	left	tactile	target	voice	221.695281216	FALSE	FALSE	FALSE	FALSE	TRUE	0	FALSE	TRUE	TRUE
e18	2015	08	26	18	37	f	16	r	29.892386043	3	117	2.41677667398	0.590096804858	left	visual	left	visual	target	voice	276.291889837	FALSE	FALSE	FALSE	FALSE	TRUE	0	FALSE	TRUE	TRUE
e18	2015	08	26	18	37	f	16	r	29.892386043	3	118	0.403801525012	1.16995129854	left	tactile	right	visual	target	voice	234.126403113	FALSE	FALSE	FALSE	FALSE	TRUE	0	FALSE	TRUE	TRUE
e18	2015	08	26	18	37	f	16	r	29.892386043	3	119	0.395969367004	1.19081407675	right	tactile	left	visual	target	voice	292.33245994	FALSE	FALSE	FALSE	FALSE	TRUE	0	FALSE	TRUE	TRUE
e18	2015	08	26	18	37	f	16	r	29.892386043	3	120	7.08637148101	0.555276564121	left	visual	left	tactile	target	voice	256.169732485	FALSE	FALSE	FALSE	FALSE	TRUE	0	FALSE	TRUE	TRUE
e18	2015	08	26	18	37	f	16	r	15.0163411491	3	121	2.46584479301	1.19269831915	right	tactile	right	visual	target	voice	320.22675249	FALSE	FALSE	FALSE	FALSE	TRUE	0	FALSE	TRUE	TRUE
e18	2015	08	26	18	37	f	16	r	15.0163411491	3	122	0.423090944998	1.36709979106	right	visual	right	tactile	target	voice	218.42588461	FALSE	FALSE	FALSE	FALSE	TRUE	0	FALSE	TRUE	TRUE
e18	2015	08	26	18	37	f	16	r	15.0163411491	3	123	0.405887012021	1.17536530346	right	tactile	left	visual	target	voice	107.884970203	FALSE	FALSE	FALSE	FALSE	TRUE	0	FALSE	TRUE	TRUE
e18	2015	08	26	18	37	f	16	r	15.0163411491	3	124	0.457315674983	0.965753939207	left	tactile	right	tactile	target	voice	132.117987378	FALSE	FALSE	FALSE	FALSE	TRUE	0	FALSE	TRUE	TRUE
e18	2015	08	26	18	37	f	16	r	15.0163411491	3	125	0.413286158	0.745561752393	right	tactile	left	tactile	target	voice	182.59548425	FALSE	FALSE	FALSE	FALSE	TRUE	0	FALSE	TRUE	TRUE
e18	2015	08	26	18	37	f	16	r	15.0163411491	3	126	0.422554901044	1.32937263301	right	visual	left	tactile	target	voice	222.572993662	FALSE	FALSE	FALSE	FALSE	TRUE	0	FALSE	FALSE	TRUE
e18	2015	08	26	18	37	f	16	r	15.0163411491	3	127	0.393078744994	0.745157189	left	visual	left	tactile	target	voice	NA	TRUE	FALSE	FALSE	FALSE	TRUE	0	FALSE	TRUE	FALSE
e18	2015	08	26	18	37	f	16	r	15.0163411491	3	128	0.784559449006	1.03347954436	left	tactile	left	visual	target	voice	396.708471293	FALSE	FALSE	FALSE	FALSE	TRUE	0	FALSE	TRUE	TRUE
e18	2015	08	26	18	37	f	16	r	15.0163411491	3	129	0.386016783013	1.16160659985	right	visual	left	visual	target	voice	321.341224771	FALSE	FALSE	FALSE	FALSE	TRUE	0	FALSE	TRUE	TRUE
e18	2015	08	26	18	37	f	16	r	15.0163411491	3	130	0.654209472996	1.44575183359	left	visual	left	visual	target	voice	87.4865380465	FALSE	FALSE	FALSE	FALSE	TRUE	0	FALSE	TRUE	TRUE
e18	2015	08	26	18	37	f	16	r	15.0163411491	3	131	0.724730262998	1.41967304447	right	visual	right	visual	target	voice	319.766739209	FALSE	FALSE	FALSE	FALSE	TRUE	0	FALSE	TRUE	TRUE
e18	2015	08	26	18	37	f	16	r	15.0163411491	3	132	0.405814292957	1.30779576174	left	visual	right	visual	target	voice	367.867841967	FALSE	FALSE	FALSE	FALSE	TRUE	0	FALSE	TRUE	TRUE
e18	2015	08	26	18	37	f	16	r	15.0163411491	3	133	2.05578319996	0.664695328753	right	visual	left	visual	target	voice	382.236389909	FALSE	FALSE	FALSE	FALSE	TRUE	0	FALSE	TRUE	TRUE
e18	2015	08	26	18	37	f	16	r	15.0163411491	3	134	3.81775219395	1.39357942411	left	tactile	right	tactile	target	voice	215.729027521	FALSE	FALSE	FALSE	FALSE	TRUE	0	FALSE	TRUE	TRUE
e18	2015	08	26	18	37	f	16	r	15.0163411491	3	135	1.59817513596	1.04889378176	right	visual	right	visual	target	voice	372.822327889	FALSE	FALSE	FALSE	FALSE	TRUE	0	FALSE	TRUE	TRUE
e18	2015	08	26	18	37	f	16	r	15.0163411491	3	136	0.503373678017	0.945703752533	right	visual	left	visual	target	voice	312.44405813	FALSE	FALSE	FALSE	FALSE	TRUE	0	FALSE	TRUE	TRUE
e18	2015	08	26	18	37	f	16	r	15.0163411491	3	137	0.436074592988	0.927610158421	left	visual	left	tactile	target	voice	274.351853295	FALSE	FALSE	FALSE	FALSE	TRUE	0	FALSE	TRUE	TRUE
e18	2015	08	26	18	37	f	16	r	15.0163411491	3	138	2.60177964706	0.827892176635	right	tactile	right	visual	target	voice	302.163820015	FALSE	FALSE	FALSE	FALSE	TRUE	0	FALSE	TRUE	TRUE
e18	2015	08	26	18	37	f	16	r	15.0163411491	3	139	0.392119078024	1.39410098842	left	tactile	left	visual	target	voice	350.498955289	FALSE	FALSE	FALSE	FALSE	TRUE	0	FALSE	TRUE	TRUE
e18	2015	08	26	18	37	f	16	r	15.0163411491	3	140	11.211489574	1.11925135021	left	tactile	left	tactile	target	voice	235.167336417	FALSE	FALSE	FALSE	FALSE	TRUE	0	FALSE	TRUE	TRUE
e18	2015	08	26	18	37	f	16	r	15.0163411491	3	141	0.408232868998	0.801274419553	right	tactile	right	tactile	target	voice	300.456936122	FALSE	FALSE	FALSE	FALSE	TRUE	0	FALSE	TRUE	TRUE
e18	2015	08	26	18	37	f	16	r	15.0163411491	3	142	1.707905152	0.825114155042	left	tactile	right	visual	target	voice	355.022077681	FALSE	FALSE	FALSE	FALSE	TRUE	0	FALSE	TRUE	TRUE
e18	2015	08	26	18	37	f	16	r	15.0163411491	3	143	0.713602064992	1.38959711832	right	visual	left	visual	target	voice	297.265306348	FALSE	FALSE	FALSE	FALSE	TRUE	0	FALSE	TRUE	TRUE
e18	2015	08	26	18	37	f	16	r	15.0163411491	3	144	0.636597037024	0.662228935797	right	visual	left	tactile	target	voice	NA	TRUE	FALSE	FALSE	FALSE	TRUE	0	FALSE	TRUE	FALSE
e18	2015	08	26	18	37	f	16	r	15.0163411491	3	145	1.180867246	0.762656058917	left	tactile	right	tactile	target	voice	341.288401687	FALSE	FALSE	FALSE	FALSE	TRUE	0	FALSE	TRUE	TRUE
e18	2015	08	26	18	37	f	16	r	15.0163411491	3	146	0.407184571028	0.976396591833	right	tactile	right	tactile	target	voice	313.227284816	FALSE	FALSE	FALSE	FALSE	TRUE	0	FALSE	TRUE	TRUE
e18	2015	08	26	18	37	f	16	r	15.0163411491	3	147	0.643163869972	1.21327913322	right	visual	right	tactile	target	voice	260.029644473	FALSE	FALSE	FALSE	FALSE	TRUE	0	FALSE	TRUE	TRUE
e18	2015	08	26	18	37	f	16	r	15.0163411491	3	148	0.504487512982	0.924038536682	left	tactile	left	tactile	catch	NA	NA	FALSE	FALSE	FALSE	FALSE	TRUE	0	FALSE	TRUE	TRUE
e18	2015	08	26	18	37	f	16	r	15.0163411491	3	149	0.644779439026	0.707353839067	left	visual	right	tactile	target	voice	287.688722601	FALSE	FALSE	FALSE	FALSE	TRUE	0	FALSE	TRUE	TRUE
e18	2015	08	26	18	37	f	16	r	15.0163411491	3	150	0.718425182975	0.847199249463	right	visual	right	visual	target	voice	282.990890148	FALSE	FALSE	FALSE	FALSE	TRUE	0	FALSE	TRUE	TRUE
e18	2015	08	26	18	37	f	16	r	15.0163411491	3	151	0.490397949005	0.622623428975	right	tactile	left	visual	target	voice	470.581146656	FALSE	FALSE	FALSE	FALSE	TRUE	0	FALSE	TRUE	TRUE
e18	2015	08	26	18	37	f	16	r	15.0163411491	3	152	0.424426693004	0.611573853593	right	visual	right	visual	catch	NA	NA	FALSE	FALSE	FALSE	FALSE	TRUE	0	FALSE	TRUE	TRUE
e18	2015	08	26	18	37	f	16	r	15.0163411491	3	153	0.836491886992	0.994889789308	right	tactile	right	visual	catch	NA	NA	FALSE	FALSE	FALSE	FALSE	TRUE	0	FALSE	TRUE	TRUE
e18	2015	08	26	18	37	f	16	r	15.0163411491	3	154	0.562573614996	1.32107264203	right	tactile	left	tactile	target	voice	316.662298574	FALSE	FALSE	FALSE	FALSE	TRUE	0	FALSE	TRUE	TRUE
e18	2015	08	26	18	37	f	16	r	15.0163411491	3	155	0.403644090984	0.647006793344	right	tactile	left	visual	target	voice	404.788732296	FALSE	FALSE	FALSE	FALSE	TRUE	0	FALSE	TRUE	TRUE
e18	2015	08	26	18	37	f	16	r	15.0163411491	3	156	0.405285518966	1.25967428318	right	visual	right	visual	target	voice	379.493976478	FALSE	FALSE	FALSE	FALSE	TRUE	0	FALSE	TRUE	TRUE
e18	2015	08	26	18	37	f	16	r	15.0163411491	3	157	0.417146800959	0.94350264333	left	tactile	left	tactile	target	voice	255.858522316	FALSE	FALSE	FALSE	FALSE	TRUE	0	FALSE	TRUE	TRUE
e18	2015	08	26	18	37	f	16	r	15.0163411491	3	158	2.21530674602	1.184489504	left	tactile	left	tactile	target	voice	274.917130708	FALSE	FALSE	FALSE	FALSE	TRUE	0	FALSE	TRUE	TRUE
e18	2015	08	26	18	37	f	16	r	15.0163411491	3	159	0.495419832994	1.35821065962	left	tactile	left	visual	target	voice	340.006456012	FALSE	FALSE	FALSE	FALSE	TRUE	0	FALSE	TRUE	TRUE
e18	2015	08	26	18	37	f	16	r	15.0163411491	3	160	0.39209367201	1.24856099227	right	tactile	right	tactile	target	voice	278.394738329	FALSE	FALSE	FALSE	FALSE	TRUE	0	FALSE	TRUE	TRUE
e18	2015	08	26	18	37	f	16	r	35.396276333	4	1	19.62658988	1.12170332118	left	visual	left	visual	target	voice	293.657736445	FALSE	FALSE	FALSE	FALSE	TRUE	0	FALSE	TRUE	TRUE
e18	2015	08	26	18	37	f	16	r	35.396276333	4	2	1.44706229295	0.696822873827	right	visual	left	visual	target	voice	321.176461875	FALSE	FALSE	FALSE	FALSE	TRUE	0	FALSE	TRUE	TRUE
e18	2015	08	26	18	37	f	16	r	35.396276333	4	3	1.90295556502	0.628974576707	left	tactile	right	visual	target	voice	420.370444946	FALSE	FALSE	FALSE	FALSE	TRUE	0	FALSE	FALSE	TRUE
e18	2015	08	26	18	37	f	16	r	35.396276333	4	4	0.473517425999	1.07244678199	right	tactile	left	visual	target	voice	293.177009735	FALSE	FALSE	FALSE	FALSE	TRUE	0	FALSE	TRUE	TRUE
e18	2015	08	26	18	37	f	16	r	35.396276333	4	5	0.407205349999	1.11990476466	left	tactile	right	tactile	target	voice	148.232553038	FALSE	FALSE	FALSE	FALSE	FALSE	0	FALSE	FALSE	TRUE
e18	2015	08	26	18	37	f	16	r	35.396276333	4	6	0.522346525046	1.19785280373	left	visual	left	tactile	target	voice	73.6583009129	FALSE	FALSE	FALSE	FALSE	TRUE	0	FALSE	FALSE	TRUE
e18	2015	08	26	18	37	f	16	r	35.396276333	4	7	0.597610342025	1.25815554969	right	visual	left	visual	target	voice	317.417112994	FALSE	FALSE	FALSE	FALSE	TRUE	0	FALSE	TRUE	TRUE
e18	2015	08	26	18	37	f	16	r	35.396276333	4	8	0.418773086974	1.43636953961	right	visual	left	visual	catch	voice	300.336002023	FALSE	FALSE	FALSE	FALSE	TRUE	0	FALSE	TRUE	TRUE
e18	2015	08	26	18	37	f	16	r	35.396276333	4	9	0.49320111901	0.809153729662	left	visual	right	tactile	target	voice	261.090337066	FALSE	FALSE	FALSE	FALSE	TRUE	0	FALSE	TRUE	TRUE
e18	2015	08	26	18	37	f	16	r	35.396276333	4	10	0.68737771298	1.49464587863	right	visual	left	tactile	target	voice	258.837204019	FALSE	FALSE	FALSE	FALSE	TRUE	0	FALSE	TRUE	TRUE
e18	2015	08	26	18	37	f	16	r	35.396276333	4	11	0.497359459987	0.770699231344	right	tactile	left	tactile	target	voice	662.804808351	FALSE	FALSE	FALSE	FALSE	TRUE	0	FALSE	FALSE	TRUE
e18	2015	08	26	18	37	f	16	r	35.396276333	4	12	1.59168468701	1.21566750475	left	tactile	left	tactile	target	voice	266.323942924	FALSE	FALSE	FALSE	FALSE	TRUE	0	FALSE	TRUE	TRUE
e18	2015	08	26	18	37	f	16	r	35.396276333	4	13	0.40094341099	0.56138325866	left	tactile	right	visual	target	voice	380.302073027	FALSE	FALSE	FALSE	FALSE	TRUE	0	FALSE	TRUE	TRUE
e18	2015	08	26	18	37	f	16	r	35.396276333	4	14	0.402907565993	1.22748080298	right	tactile	left	tactile	catch	NA	NA	FALSE	FALSE	FALSE	FALSE	TRUE	0	FALSE	TRUE	TRUE
e18	2015	08	26	18	37	f	16	r	35.396276333	4	15	0.549717282993	0.540872106618	left	tactile	left	visual	target	voice	418.609316053	FALSE	FALSE	FALSE	FALSE	TRUE	0	FALSE	TRUE	TRUE
e18	2015	08	26	18	37	f	16	r	35.396276333	4	16	0.408633678977	1.33599189599	left	visual	left	tactile	target	voice	451.000913687	FALSE	FALSE	FALSE	FALSE	TRUE	0	FALSE	TRUE	TRUE
e18	2015	08	26	18	37	f	16	r	35.396276333	4	17	0.462490823993	1.03285687546	right	visual	left	tactile	target	voice	174.057881173	FALSE	FALSE	FALSE	FALSE	TRUE	0	FALSE	TRUE	TRUE
e18	2015	08	26	18	37	f	16	r	35.396276333	4	18	0.477187766053	1.21808692697	right	tactile	right	visual	catch	NA	NA	FALSE	FALSE	FALSE	FALSE	TRUE	0	FALSE	TRUE	TRUE
e18	2015	08	26	18	37	f	16	r	35.396276333	4	19	0.639774214011	0.666309034964	right	visual	left	tactile	target	voice	336.957950727	FALSE	FALSE	FALSE	FALSE	TRUE	0	FALSE	TRUE	TRUE
e18	2015	08	26	18	37	f	16	r	35.396276333	4	20	0.410841744975	0.543963431326	right	tactile	left	tactile	target	voice	323.441425338	FALSE	FALSE	FALSE	FALSE	TRUE	0	FALSE	TRUE	TRUE
e18	2015	08	26	18	37	f	16	r	35.396276333	4	21	5.37448841799	0.786186980872	left	visual	right	visual	target	voice	382.66032876	FALSE	FALSE	FALSE	FALSE	TRUE	0	FALSE	FALSE	TRUE
e18	2015	08	26	18	37	f	16	r	35.396276333	4	22	0.402376581042	0.978554911942	right	visual	right	visual	target	voice	372.975322709	FALSE	FALSE	FALSE	FALSE	TRUE	0	FALSE	TRUE	TRUE
e18	2015	08	26	18	37	f	16	r	35.396276333	4	23	0.416171516001	1.37194583323	right	tactile	right	tactile	target	voice	334.832683497	FALSE	FALSE	FALSE	FALSE	TRUE	0	FALSE	TRUE	TRUE
e18	2015	08	26	18	37	f	16	r	35.396276333	4	24	0.405951002962	0.84986824585	right	tactile	right	tactile	target	voice	386.012458825	FALSE	FALSE	FALSE	FALSE	TRUE	0	FALSE	TRUE	TRUE
e18	2015	08	26	18	37	f	16	r	35.396276333	4	25	0.410381413996	1.14163302689	right	visual	right	tactile	target	voice	341.741380747	FALSE	FALSE	FALSE	FALSE	TRUE	0	FALSE	TRUE	TRUE
e18	2015	08	26	18	37	f	16	r	35.396276333	4	26	0.412649399019	1.17357921337	left	visual	right	visual	target	voice	303.054676275	FALSE	FALSE	FALSE	FALSE	TRUE	0	FALSE	TRUE	TRUE
e18	2015	08	26	18	37	f	16	r	35.396276333	4	27	2.22069811699	0.649726802344	left	tactile	left	tactile	target	voice	332.82426832	FALSE	FALSE	FALSE	FALSE	TRUE	0	FALSE	TRUE	TRUE
e18	2015	08	26	18	37	f	16	r	35.396276333	4	28	0.405386199011	1.24590042804	right	visual	left	tactile	target	voice	311.905942624	FALSE	FALSE	FALSE	FALSE	TRUE	0	FALSE	TRUE	TRUE
e18	2015	08	26	18	37	f	16	r	35.396276333	4	29	0.416163973976	0.811193397953	right	visual	right	tactile	target	voice	263.774364663	FALSE	FALSE	FALSE	FALSE	TRUE	0	FALSE	TRUE	TRUE
e18	2015	08	26	18	37	f	16	r	35.396276333	4	30	0.576239059039	1.19353424809	right	visual	right	tactile	target	voice	238.773100544	FALSE	FALSE	FALSE	FALSE	TRUE	0	FALSE	TRUE	TRUE
e18	2015	08	26	18	37	f	16	r	35.396276333	4	31	0.397008148022	0.938862550353	right	visual	right	visual	target	voice	281.521378318	FALSE	FALSE	FALSE	FALSE	TRUE	0	FALSE	TRUE	TRUE
e18	2015	08	26	18	37	f	16	r	35.396276333	4	32	0.401790073956	0.50021828396	left	visual	right	tactile	target	voice	247.49652372	FALSE	FALSE	FALSE	FALSE	TRUE	0	FALSE	TRUE	TRUE
e18	2015	08	26	18	37	f	16	r	35.396276333	4	33	0.404766134976	1.24101689573	right	tactile	left	visual	target	voice	352.422386932	FALSE	FALSE	FALSE	FALSE	TRUE	0	FALSE	TRUE	TRUE
e18	2015	08	26	18	37	f	16	r	35.396276333	4	34	8.74772707303	0.862774451643	right	visual	left	visual	target	voice	306.318708987	FALSE	FALSE	FALSE	FALSE	TRUE	0	FALSE	TRUE	TRUE
e18	2015	08	26	18	37	f	16	r	35.396276333	4	35	10.23071555	1.2105249831	right	visual	right	tactile	target	voice	356.819425593	FALSE	FALSE	FALSE	FALSE	TRUE	0	FALSE	TRUE	TRUE
e18	2015	08	26	18	37	f	16	r	35.396276333	4	36	0.783864264027	0.738084446744	right	visual	right	tactile	target	voice	321.422588895	FALSE	FALSE	FALSE	FALSE	TRUE	0	FALSE	TRUE	TRUE
e18	2015	08	26	18	37	f	16	r	35.396276333	4	37	0.49811696203	1.34353691224	right	visual	left	visual	target	voice	318.796742416	FALSE	FALSE	FALSE	FALSE	TRUE	0	FALSE	TRUE	TRUE
e18	2015	08	26	18	37	f	16	r	35.396276333	4	38	0.421194679046	1.05357849167	left	tactile	left	tactile	target	voice	325.801827013	FALSE	FALSE	FALSE	FALSE	TRUE	0	FALSE	FALSE	TRUE
e18	2015	08	26	18	37	f	16	r	35.396276333	4	39	0.405755279993	1.16660649866	left	visual	right	tactile	target	voice	246.462024981	FALSE	FALSE	FALSE	FALSE	TRUE	0	FALSE	FALSE	TRUE
e18	2015	08	26	18	37	f	16	r	35.396276333	4	40	0.40354256198	1.05323175613	left	tactile	right	tactile	target	voice	271.675046475	FALSE	FALSE	FALSE	FALSE	TRUE	0	FALSE	TRUE	TRUE
e18	2015	08	26	18	37	f	16	r	24.909371432	4	41	2.40220029897	0.614893854915	right	tactile	right	visual	target	voice	390.993830748	FALSE	FALSE	FALSE	FALSE	TRUE	0	FALSE	TRUE	TRUE
e18	2015	08	26	18	37	f	16	r	24.909371432	4	42	0.396893783996	1.21763993665	right	visual	right	tactile	catch	NA	NA	FALSE	FALSE	FALSE	FALSE	TRUE	0	FALSE	TRUE	TRUE
e18	2015	08	26	18	37	f	16	r	24.909371432	4	43	0.672031450027	0.648548734777	left	tactile	left	tactile	target	voice	270.679904846	FALSE	FALSE	FALSE	FALSE	TRUE	0	FALSE	TRUE	TRUE
e18	2015	08	26	18	37	f	16	r	24.909371432	4	44	2.04196661501	1.46063643812	right	visual	left	tactile	target	voice	301.084913546	FALSE	FALSE	FALSE	FALSE	TRUE	0	FALSE	TRUE	TRUE
e18	2015	08	26	18	37	f	16	r	24.909371432	4	45	0.421607268974	1.28609968214	left	visual	right	tactile	catch	NA	NA	FALSE	FALSE	FALSE	FALSE	TRUE	0	FALSE	TRUE	TRUE
e18	2015	08	26	18	37	f	16	r	24.909371432	4	46	1.16202391102	1.1956325617	right	visual	left	visual	target	voice	NA	TRUE	FALSE	FALSE	FALSE	FALSE	0	FALSE	FALSE	FALSE
e18	2015	08	26	18	37	f	16	r	24.909371432	4	47	1.17785718403	1.28059814173	right	visual	right	visual	target	voice	405.825808935	FALSE	FALSE	FALSE	FALSE	TRUE	0	FALSE	TRUE	TRUE
e18	2015	08	26	18	37	f	16	r	24.909371432	4	48	0.396987036976	1.33141886409	left	visual	left	tactile	target	voice	362.694596581	FALSE	FALSE	FALSE	FALSE	TRUE	0	FALSE	FALSE	TRUE
e18	2015	08	26	18	37	f	16	r	24.909371432	4	49	2.07003903802	0.911615456144	left	visual	right	visual	target	voice	351.103742491	FALSE	FALSE	FALSE	FALSE	TRUE	0	FALSE	TRUE	TRUE
e18	2015	08	26	18	37	f	16	r	24.909371432	4	50	1.15600023	0.719822681943	right	visual	right	visual	target	voice	NA	TRUE	FALSE	FALSE	FALSE	FALSE	0	FALSE	FALSE	FALSE
e18	2015	08	26	18	37	f	16	r	24.909371432	4	51	1.119542206	0.528217623392	left	visual	left	tactile	target	voice	259.274844197	FALSE	FALSE	FALSE	FALSE	TRUE	0	FALSE	TRUE	TRUE
e18	2015	08	26	18	37	f	16	r	24.909371432	4	52	0.50792953599	1.22839571622	left	tactile	right	visual	target	voice	317.389400443	FALSE	FALSE	FALSE	FALSE	TRUE	0	FALSE	TRUE	TRUE
