id	year	month	day	hour	minute	sex	age	handedness	message_viewing_time	block	trial_num	trial_initiation_time	fixation_duration	cue_location	cue_modality	target_location	target_modality	target_type	target_response_key	target_response_rt	pre_target_response	feedback_response	recalibration	blink	saccade	biggest_small_saccade	critical_blink	critical_saccade	target_started_TF
e19	2015	08	27	18	02	m	21	r	336.299042292	practice	1	5.412911725	0.897545396246	right	tactile	right	tactile	target	voice	NA	TRUE	FALSE	FALSE	TRUE	FALSE	0	FALSE	FALSE	FALSE
e19	2015	08	27	18	02	m	21	r	336.299042292	practice	2	4.08290223801	0.931346377833	right	tactile	right	visual	target	voice	NA	TRUE	FALSE	FALSE	FALSE	FALSE	0	FALSE	FALSE	FALSE
e19	2015	08	27	18	02	m	21	r	336.299042292	practice	3	4.25736495497	1.36333440596	right	visual	left	tactile	target	NA	NA	FALSE	FALSE	FALSE	FALSE	TRUE	0	FALSE	TRUE	TRUE
e19	2015	08	27	18	02	m	21	r	336.299042292	practice	4	6.01478911703	0.572822601111	right	visual	right	visual	catch	NA	NA	FALSE	FALSE	FALSE	FALSE	TRUE	0	FALSE	TRUE	TRUE
e19	2015	08	27	18	02	m	21	r	336.299042292	practice	5	4.90777859499	0.762556356692	left	tactile	left	visual	target	voice	828.107982001	FALSE	FALSE	FALSE	FALSE	FALSE	0	FALSE	FALSE	TRUE
e19	2015	08	27	18	02	m	21	r	336.299042292	practice	6	2.82690398203	1.15977430857	right	tactile	right	tactile	target	voice	NA	TRUE	FALSE	FALSE	FALSE	FALSE	0	FALSE	FALSE	FALSE
e19	2015	08	27	18	02	m	21	r	336.299042292	practice	7	1.039511276	0.570104341311	left	tactile	right	visual	target	NA	NA	FALSE	FALSE	FALSE	FALSE	TRUE	0	FALSE	TRUE	TRUE
e19	2015	08	27	18	02	m	21	r	336.299042292	practice	8	1.86552712205	1.15816555823	left	visual	left	visual	catch	NA	NA	FALSE	FALSE	FALSE	FALSE	FALSE	0	FALSE	FALSE	TRUE
e19	2015	08	27	18	02	m	21	r	336.299042292	practice	9	0.961538331001	1.41603768602	right	tactile	left	tactile	target	voice	NA	TRUE	FALSE	FALSE	FALSE	FALSE	0	FALSE	FALSE	FALSE
e19	2015	08	27	18	02	m	21	r	336.299042292	practice	10	1.01984864997	0.952015510502	left	tactile	right	tactile	target	voice	NA	TRUE	FALSE	FALSE	FALSE	TRUE	0	FALSE	TRUE	FALSE
e19	2015	08	27	18	02	m	21	r	336.299042292	practice	11	5.05411692895	1.26860306319	right	tactile	right	visual	target	voice	NA	TRUE	FALSE	FALSE	FALSE	FALSE	0	FALSE	FALSE	FALSE
e19	2015	08	27	18	02	m	21	r	336.299042292	practice	12	3.54874424904	0.9328230861	right	visual	right	visual	target	NA	NA	FALSE	FALSE	FALSE	FALSE	FALSE	0	FALSE	FALSE	TRUE
e19	2015	08	27	18	02	m	21	r	336.299042292	practice	13	2.08283442399	0.748715120877	right	visual	left	tactile	target	voice	NA	TRUE	FALSE	FALSE	FALSE	FALSE	0	FALSE	FALSE	FALSE
e19	2015	08	27	18	02	m	21	r	336.299042292	practice	14	13.269104068	0.83152905242	right	tactile	right	visual	target	voice	NA	TRUE	FALSE	FALSE	FALSE	FALSE	0	FALSE	FALSE	FALSE
e19	2015	08	27	18	02	m	21	r	336.299042292	practice	15	24.82938517	0.996469793987	left	tactile	right	tactile	target	voice	NA	TRUE	FALSE	FALSE	FALSE	FALSE	0	FALSE	FALSE	FALSE
e19	2015	08	27	18	02	m	21	r	336.299042292	practice	16	18.076705695	0.571319487568	right	tactile	left	tactile	target	voice	737.037330051	FALSE	FALSE	FALSE	FALSE	FALSE	0	FALSE	FALSE	TRUE
e19	2015	08	27	18	02	m	21	r	336.299042292	practice	17	1.61387076596	1.25496564425	left	tactile	left	tactile	target	voice	434.318261396	FALSE	FALSE	FALSE	FALSE	FALSE	0	FALSE	FALSE	TRUE
e19	2015	08	27	18	02	m	21	r	336.299042292	practice	18	5.69069818204	1.28789892933	right	tactile	left	tactile	target	voice	NA	TRUE	FALSE	FALSE	FALSE	FALSE	0	FALSE	FALSE	FALSE
e19	2015	08	27	18	02	m	21	r	336.299042292	practice	19	6.78421125404	0.757556581055	right	tactile	left	tactile	target	voice	NA	TRUE	FALSE	FALSE	FALSE	FALSE	0	FALSE	FALSE	FALSE
e19	2015	08	27	18	02	m	21	r	336.299042292	practice	20	17.071058322	1.31361610966	right	tactile	right	visual	target	NA	NA	FALSE	FALSE	FALSE	FALSE	FALSE	0	FALSE	FALSE	TRUE
e19	2015	08	27	18	02	m	21	r	336.299042292	practice	21	7.47657655599	0.525179526672	left	visual	left	tactile	target	voice	506.375023047	FALSE	FALSE	FALSE	FALSE	FALSE	0	FALSE	FALSE	TRUE
e19	2015	08	27	18	02	m	21	r	336.299042292	practice	22	7.77643367799	0.569105770641	right	tactile	left	visual	target	voice	369.021061051	FALSE	FALSE	FALSE	FALSE	FALSE	0	FALSE	FALSE	TRUE
e19	2015	08	27	18	02	m	21	r	336.299042292	practice	23	2.79401586199	0.770957955247	right	visual	right	tactile	target	voice	289.949797385	FALSE	FALSE	FALSE	FALSE	FALSE	0	FALSE	FALSE	TRUE
e19	2015	08	27	18	02	m	21	r	336.299042292	practice	24	1.25409263402	0.75919138858	right	visual	left	tactile	target	voice	335.007002112	FALSE	FALSE	FALSE	FALSE	FALSE	0	FALSE	FALSE	TRUE
e19	2015	08	27	18	02	m	21	r	336.299042292	practice	25	1.712724332	0.593686628892	left	tactile	left	visual	catch	NA	NA	FALSE	FALSE	FALSE	FALSE	FALSE	0	FALSE	FALSE	TRUE
e19	2015	08	27	18	02	m	21	r	336.299042292	practice	26	1.60321453901	0.607610395341	right	tactile	right	tactile	target	voice	463.073821331	FALSE	FALSE	FALSE	FALSE	FALSE	0	FALSE	FALSE	TRUE
e19	2015	08	27	18	02	m	21	r	336.299042292	practice	27	1.60332007596	0.712479795857	left	visual	left	tactile	target	voice	444.256980787	FALSE	FALSE	FALSE	FALSE	FALSE	0	FALSE	FALSE	TRUE
e19	2015	08	27	18	02	m	21	r	336.299042292	practice	28	1.05477018602	1.25400235959	right	visual	left	tactile	catch	voice	NA	TRUE	FALSE	FALSE	FALSE	FALSE	0	FALSE	FALSE	FALSE
e19	2015	08	27	18	02	m	21	r	336.299042292	practice	29	0.490334274014	0.933161670406	right	tactile	right	tactile	catch	NA	NA	FALSE	FALSE	FALSE	FALSE	TRUE	0	FALSE	TRUE	TRUE
e19	2015	08	27	18	02	m	21	r	336.299042292	practice	30	0.942845657992	1.11015945459	right	visual	left	visual	target	voice	552.662776085	FALSE	FALSE	FALSE	FALSE	FALSE	0	FALSE	FALSE	TRUE
e19	2015	08	27	18	02	m	21	r	336.299042292	practice	31	1.66597956803	1.27860725793	left	visual	right	tactile	target	voice	330.892230733	FALSE	FALSE	FALSE	FALSE	FALSE	0	FALSE	FALSE	TRUE
e19	2015	08	27	18	02	m	21	r	336.299042292	practice	32	1.28396785795	0.930469289018	left	visual	right	tactile	target	voice	437.020227604	FALSE	FALSE	FALSE	FALSE	FALSE	0	FALSE	FALSE	TRUE
e19	2015	08	27	18	02	m	21	r	336.299042292	practice	33	1.55071737897	0.978289219675	right	visual	right	visual	target	voice	NA	TRUE	FALSE	FALSE	FALSE	FALSE	0	FALSE	FALSE	FALSE
e19	2015	08	27	18	02	m	21	r	336.299042292	practice	34	1.48614938703	1.21107187864	right	visual	left	visual	target	voice	547.115909052	FALSE	FALSE	FALSE	FALSE	FALSE	0	FALSE	FALSE	TRUE
e19	2015	08	27	18	02	m	21	r	336.299042292	practice	35	0.989002422953	0.594454132282	left	visual	right	visual	target	voice	421.370801399	FALSE	FALSE	FALSE	FALSE	FALSE	0	FALSE	FALSE	TRUE
e19	2015	08	27	18	02	m	21	r	336.299042292	practice	36	1.28487506998	0.996970080574	left	tactile	right	tactile	target	voice	380.121342081	FALSE	FALSE	FALSE	FALSE	FALSE	0	FALSE	FALSE	TRUE
e19	2015	08	27	18	02	m	21	r	336.299042292	practice	37	1.30830734002	0.527478561707	left	visual	left	visual	target	voice	607.011572982	FALSE	FALSE	FALSE	FALSE	FALSE	0	FALSE	FALSE	TRUE
e19	2015	08	27	18	02	m	21	r	336.299042292	practice	38	1.55247491703	1.169255362	left	tactile	right	tactile	target	voice	NA	TRUE	FALSE	FALSE	FALSE	FALSE	0	FALSE	FALSE	FALSE
e19	2015	08	27	18	02	m	21	r	336.299042292	practice	39	3.08538461197	0.743056814487	left	visual	left	tactile	target	voice	416.963108175	FALSE	FALSE	FALSE	FALSE	FALSE	0	FALSE	FALSE	TRUE
e19	2015	08	27	18	02	m	21	r	336.299042292	practice	40	1.74846345105	0.875927553413	right	tactile	right	visual	catch	NA	NA	FALSE	FALSE	FALSE	FALSE	TRUE	0	FALSE	TRUE	TRUE
e19	2015	08	27	18	02	m	21	r	45.874755097	1	1	2.34642829502	1.34434005095	right	visual	right	visual	catch	NA	NA	FALSE	FALSE	FALSE	FALSE	TRUE	0	FALSE	FALSE	TRUE
e19	2015	08	27	18	02	m	21	r	45.874755097	1	2	1.26168364298	1.25154083842	left	tactile	right	tactile	target	voice	295.932753244	FALSE	FALSE	FALSE	FALSE	FALSE	0	FALSE	FALSE	TRUE
e19	2015	08	27	18	02	m	21	r	45.874755097	1	3	1.28047926602	0.580834265224	right	tactile	left	visual	catch	NA	NA	FALSE	FALSE	FALSE	FALSE	TRUE	0	FALSE	TRUE	TRUE
e19	2015	08	27	18	02	m	21	r	45.874755097	1	4	3.31643064803	0.674210228592	left	tactile	left	visual	target	voice	458.672249049	FALSE	FALSE	FALSE	TRUE	TRUE	0	TRUE	TRUE	TRUE
e19	2015	08	27	18	02	m	21	r	45.874755097	1	5	1.90563224303	0.527902565494	left	visual	left	visual	target	voice	621.32072018	FALSE	FALSE	FALSE	FALSE	TRUE	0	FALSE	TRUE	TRUE
e19	2015	08	27	18	02	m	21	r	45.874755097	1	6	0.951824623044	1.27796838306	right	visual	left	visual	target	voice	352.698885603	FALSE	FALSE	FALSE	FALSE	TRUE	0	FALSE	TRUE	TRUE
e19	2015	08	27	18	02	m	21	r	45.874755097	1	7	9.79652826395	1.48308934067	left	visual	right	tactile	target	voice	338.669270976	FALSE	FALSE	FALSE	FALSE	FALSE	0	FALSE	FALSE	TRUE
e19	2015	08	27	18	02	m	21	r	45.874755097	1	8	0.955009508005	0.562014850892	right	visual	right	tactile	target	voice	526.484914764	FALSE	FALSE	FALSE	FALSE	FALSE	0	FALSE	FALSE	TRUE
e19	2015	08	27	18	02	m	21	r	45.874755097	1	9	0.945418506046	1.49671106661	left	visual	left	tactile	catch	voice	NA	TRUE	FALSE	FALSE	FALSE	FALSE	0	FALSE	FALSE	FALSE
e19	2015	08	27	18	02	m	21	r	45.874755097	1	10	0.474049274984	0.69876039587	right	visual	left	tactile	target	voice	414.093367755	FALSE	FALSE	FALSE	FALSE	FALSE	0	FALSE	FALSE	TRUE
e19	2015	08	27	18	02	m	21	r	45.874755097	1	11	0.861744368973	1.26743935936	right	visual	left	tactile	catch	NA	NA	FALSE	FALSE	FALSE	FALSE	FALSE	0	FALSE	FALSE	TRUE
e19	2015	08	27	18	02	m	21	r	45.874755097	1	12	0.981942463957	1.43364486816	right	visual	right	visual	target	voice	685.232023534	FALSE	FALSE	FALSE	FALSE	TRUE	0	FALSE	TRUE	TRUE
e19	2015	08	27	18	02	m	21	r	45.874755097	1	13	0.969354698027	1.320190822	left	visual	left	tactile	target	voice	407.292918651	FALSE	FALSE	FALSE	FALSE	FALSE	0	FALSE	FALSE	TRUE
e19	2015	08	27	18	02	m	21	r	45.874755097	1	14	0.868933970982	1.29957013943	left	visual	right	tactile	target	voice	309.642045235	FALSE	FALSE	FALSE	FALSE	FALSE	0	FALSE	FALSE	TRUE
e19	2015	08	27	18	02	m	21	r	45.874755097	1	15	0.634427145007	0.894461859913	right	visual	left	tactile	target	voice	274.565099797	FALSE	FALSE	FALSE	FALSE	FALSE	0	FALSE	FALSE	TRUE
e19	2015	08	27	18	02	m	21	r	45.874755097	1	16	0.732916265959	0.747552143645	left	visual	left	tactile	target	voice	393.090063008	FALSE	FALSE	FALSE	FALSE	FALSE	0	FALSE	FALSE	TRUE
e19	2015	08	27	18	02	m	21	r	45.874755097	1	17	0.793538606027	1.30741998906	left	visual	right	tactile	target	voice	NA	TRUE	FALSE	FALSE	FALSE	FALSE	0	FALSE	FALSE	FALSE
e19	2015	08	27	18	02	m	21	r	45.874755097	1	18	1.60767768201	0.880031165527	right	visual	left	visual	target	voice	505.99854911	FALSE	FALSE	FALSE	FALSE	FALSE	0	FALSE	FALSE	TRUE
e19	2015	08	27	18	02	m	21	r	45.874755097	1	19	0.737632746983	0.676815816334	left	tactile	right	tactile	target	voice	NA	TRUE	FALSE	FALSE	FALSE	FALSE	0	FALSE	FALSE	FALSE
e19	2015	08	27	18	02	m	21	r	45.874755097	1	20	1.685108773	1.00421934352	right	tactile	right	tactile	target	voice	462.161955133	FALSE	FALSE	FALSE	FALSE	TRUE	0	FALSE	FALSE	TRUE
e19	2015	08	27	18	02	m	21	r	45.874755097	1	21	0.950031362008	1.24705157865	left	tactile	left	tactile	target	voice	NA	TRUE	FALSE	FALSE	FALSE	FALSE	0	FALSE	FALSE	FALSE
e19	2015	08	27	18	02	m	21	r	45.874755097	1	22	1.59503720899	0.65677420213	right	visual	left	visual	target	voice	NA	TRUE	FALSE	FALSE	FALSE	FALSE	0	FALSE	FALSE	FALSE
e19	2015	08	27	18	02	m	21	r	45.874755097	1	23	2.29134191602	1.16454448283	left	tactile	left	tactile	target	voice	NA	TRUE	FALSE	FALSE	FALSE	FALSE	0	FALSE	FALSE	FALSE
e19	2015	08	27	18	02	m	21	r	45.874755097	1	24	3.90277785296	1.49199978617	right	visual	left	visual	target	voice	517.046923516	FALSE	FALSE	FALSE	FALSE	TRUE	0	FALSE	TRUE	TRUE
e19	2015	08	27	18	02	m	21	r	45.874755097	1	25	1.68970213697	1.032820692	left	tactile	right	visual	target	voice	NA	TRUE	FALSE	FALSE	FALSE	FALSE	0	FALSE	FALSE	FALSE
e19	2015	08	27	18	02	m	21	r	45.874755097	1	26	2.21709318395	1.30730994196	right	tactile	right	visual	target	voice	532.231977675	FALSE	FALSE	FALSE	FALSE	TRUE	0	FALSE	TRUE	TRUE
e19	2015	08	27	18	02	m	21	r	45.874755097	1	27	1.66225374903	0.740078169705	left	visual	right	tactile	target	voice	358.952188981	FALSE	FALSE	FALSE	FALSE	TRUE	0	FALSE	TRUE	TRUE
e19	2015	08	27	18	02	m	21	r	45.874755097	1	28	1.89934866503	1.33574957268	left	tactile	right	tactile	target	voice	429.211878974	FALSE	FALSE	FALSE	TRUE	TRUE	0	TRUE	TRUE	TRUE
e19	2015	08	27	18	02	m	21	r	45.874755097	1	29	1.55257439101	1.23020428983	right	visual	left	tactile	target	voice	NA	TRUE	FALSE	FALSE	FALSE	FALSE	0	FALSE	FALSE	FALSE
e19	2015	08	27	18	02	m	21	r	45.874755097	1	30	1.92825624696	1.1116478083	left	visual	right	tactile	target	voice	423.634606355	FALSE	FALSE	FALSE	TRUE	FALSE	0	FALSE	FALSE	TRUE
e19	2015	08	27	18	02	m	21	r	45.874755097	1	31	1.66405321902	0.701062435237	left	visual	left	tactile	target	voice	463.2683784	FALSE	FALSE	FALSE	FALSE	TRUE	0	FALSE	TRUE	TRUE
e19	2015	08	27	18	02	m	21	r	45.874755097	1	32	4.080633501	1.46836906074	right	visual	right	tactile	target	voice	281.942050904	FALSE	FALSE	FALSE	FALSE	TRUE	0	FALSE	TRUE	TRUE
e19	2015	08	27	18	02	m	21	r	45.874755097	1	33	1.59426470404	0.697439266998	left	visual	right	visual	target	voice	519.938957645	FALSE	FALSE	FALSE	FALSE	TRUE	0	FALSE	TRUE	TRUE
e19	2015	08	27	18	02	m	21	r	45.874755097	1	34	5.99368952803	0.807504631794	right	visual	right	visual	target	voice	NA	TRUE	FALSE	FALSE	TRUE	FALSE	0	FALSE	FALSE	FALSE
e19	2015	08	27	18	02	m	21	r	45.874755097	1	35	3.19827075402	1.20957508361	right	tactile	left	tactile	target	voice	273.425210034	FALSE	FALSE	FALSE	FALSE	FALSE	0	FALSE	FALSE	TRUE
e19	2015	08	27	18	02	m	21	r	45.874755097	1	36	1.614004531	1.05097657216	left	visual	right	tactile	target	voice	NA	TRUE	FALSE	FALSE	FALSE	TRUE	0	FALSE	FALSE	FALSE
e19	2015	08	27	18	02	m	21	r	45.874755097	1	37	1.889722633	0.982682888592	right	tactile	left	visual	target	voice	351.133442076	FALSE	FALSE	FALSE	FALSE	TRUE	0	FALSE	TRUE	TRUE
e19	2015	08	27	18	02	m	21	r	45.874755097	1	38	1.71459796798	0.676245870905	left	tactile	left	tactile	target	voice	458.296845783	FALSE	FALSE	FALSE	FALSE	TRUE	0	FALSE	TRUE	TRUE
e19	2015	08	27	18	02	m	21	r	45.874755097	1	39	1.15420534101	0.94881701886	left	tactile	right	tactile	target	voice	222.173136775	FALSE	FALSE	FALSE	FALSE	TRUE	0	FALSE	TRUE	TRUE
e19	2015	08	27	18	02	m	21	r	45.874755097	1	40	1.02615240804	1.39628252415	right	tactile	left	visual	target	voice	NA	TRUE	FALSE	FALSE	FALSE	TRUE	0	FALSE	FALSE	FALSE
e19	2015	08	27	18	02	m	21	r	15.022593503	1	41	1.904775234	0.933945839253	right	tactile	left	visual	target	voice	461.297591391	FALSE	FALSE	FALSE	FALSE	FALSE	0	FALSE	FALSE	TRUE
e19	2015	08	27	18	02	m	21	r	15.022593503	1	42	0.825048825995	1.27608583479	left	visual	right	tactile	catch	voice	680.594952893	FALSE	FALSE	FALSE	FALSE	FALSE	0	FALSE	FALSE	TRUE
e19	2015	08	27	18	02	m	21	r	15.022593503	1	43	0.989354013	0.923366702747	right	visual	right	visual	target	voice	449.251391925	FALSE	FALSE	FALSE	FALSE	FALSE	0	FALSE	FALSE	TRUE
e19	2015	08	27	18	02	m	21	r	15.022593503	1	44	1.16272485	1.48385363152	left	visual	left	visual	target	voice	NA	TRUE	FALSE	FALSE	FALSE	FALSE	0	FALSE	FALSE	FALSE
e19	2015	08	27	18	02	m	21	r	15.022593503	1	45	0.800487694039	1.28278060654	right	tactile	right	tactile	target	voice	NA	TRUE	FALSE	FALSE	FALSE	FALSE	0	FALSE	FALSE	FALSE
e19	2015	08	27	18	02	m	21	r	15.022593503	1	46	1.57503277401	0.879084842502	right	tactile	left	tactile	target	voice	388.537824154	FALSE	FALSE	FALSE	FALSE	FALSE	0	FALSE	FALSE	TRUE
e19	2015	08	27	18	02	m	21	r	15.022593503	1	47	1.37283046299	1.10973376477	left	visual	right	visual	target	voice	481.219856883	FALSE	FALSE	FALSE	FALSE	TRUE	0	FALSE	TRUE	TRUE
e19	2015	08	27	18	02	m	21	r	15.022593503	1	48	7.460084169	0.967465785971	right	tactile	right	visual	target	voice	381.440404686	FALSE	FALSE	FALSE	FALSE	FALSE	0	FALSE	FALSE	TRUE
e19	2015	08	27	18	02	m	21	r	15.022593503	1	49	3.63839515799	1.34129320893	right	tactile	right	visual	target	voice	256.026427727	FALSE	FALSE	FALSE	FALSE	FALSE	0	FALSE	FALSE	TRUE
e19	2015	08	27	18	02	m	21	r	15.022593503	1	50	1.45120475901	0.895556870343	right	visual	right	visual	target	voice	306.633238331	FALSE	FALSE	FALSE	FALSE	FALSE	0	FALSE	FALSE	TRUE
e19	2015	08	27	18	02	m	21	r	15.022593503	1	51	1.41265377996	0.665198976016	left	tactile	left	visual	target	voice	614.528774691	FALSE	FALSE	FALSE	FALSE	FALSE	0	FALSE	FALSE	TRUE
e19	2015	08	27	18	02	m	21	r	15.022593503	1	52	1.27791184798	1.22608340544	right	visual	left	visual	target	voice	323.846046231	FALSE	FALSE	FALSE	FALSE	FALSE	0	FALSE	FALSE	TRUE
e19	2015	08	27	18	02	m	21	r	15.022593503	1	53	1.08918648603	1.00476857575	left	visual	left	tactile	target	voice	222.03552688	FALSE	FALSE	FALSE	FALSE	FALSE	0	FALSE	FALSE	TRUE
e19	2015	08	27	18	02	m	21	r	15.022593503	1	54	1.28154653701	1.16978633642	right	tactile	left	visual	target	voice	NA	TRUE	FALSE	FALSE	FALSE	FALSE	0	FALSE	FALSE	FALSE
e19	2015	08	27	18	02	m	21	r	15.022593503	1	55	2.38200773596	1.41829129768	left	tactile	right	tactile	target	voice	NA	TRUE	FALSE	FALSE	FALSE	FALSE	0	FALSE	FALSE	FALSE
e19	2015	08	27	18	02	m	21	r	15.022593503	1	56	1.57118548499	1.11381300597	right	tactile	right	visual	target	voice	404.98585871	FALSE	FALSE	FALSE	FALSE	FALSE	0	FALSE	FALSE	TRUE
e19	2015	08	27	18	02	m	21	r	15.022593503	1	57	1.46497725998	1.22351504403	right	tactile	right	tactile	target	voice	348.007666646	FALSE	FALSE	FALSE	FALSE	FALSE	0	FALSE	FALSE	TRUE
e19	2015	08	27	18	02	m	21	r	15.022593503	1	58	1.12714409997	1.10225155743	left	tactile	right	tactile	target	voice	374.82867419	FALSE	FALSE	FALSE	FALSE	FALSE	0	FALSE	FALSE	TRUE
e19	2015	08	27	18	02	m	21	r	15.022593503	1	59	1.13303901703	1.02480947829	left	visual	left	visual	target	voice	334.222797304	FALSE	FALSE	FALSE	FALSE	FALSE	0	FALSE	FALSE	TRUE
e19	2015	08	27	18	02	m	21	r	15.022593503	1	60	1.54545509903	0.988560000115	left	tactile	right	tactile	catch	NA	NA	FALSE	FALSE	FALSE	FALSE	FALSE	0	FALSE	FALSE	TRUE
e19	2015	08	27	18	02	m	21	r	15.022593503	1	61	19.304413761	0.505539093206	right	tactile	right	tactile	target	voice	562.142986455	FALSE	FALSE	FALSE	FALSE	TRUE	0	FALSE	TRUE	TRUE
e19	2015	08	27	18	02	m	21	r	15.022593503	1	62	16.535155687	1.26846574572	right	visual	right	visual	target	voice	495.887903904	FALSE	FALSE	FALSE	FALSE	FALSE	0	FALSE	FALSE	TRUE
e19	2015	08	27	18	02	m	21	r	15.022593503	1	63	1.03121261002	1.16620695666	right	visual	right	visual	target	voice	557.082530984	FALSE	FALSE	FALSE	FALSE	FALSE	0	FALSE	FALSE	TRUE
e19	2015	08	27	18	02	m	21	r	15.022593503	1	64	3.31913503702	0.634956091257	left	tactile	right	tactile	target	voice	380.139482382	FALSE	FALSE	FALSE	FALSE	FALSE	0	FALSE	FALSE	TRUE
e19	2015	08	27	18	02	m	21	r	15.022593503	1	65	1.50637298898	1.33586268519	left	visual	left	tactile	target	voice	311.57492951	FALSE	FALSE	FALSE	FALSE	FALSE	0	FALSE	FALSE	TRUE
e19	2015	08	27	18	02	m	21	r	15.022593503	1	66	1.07809491199	1.40856452893	right	visual	right	tactile	target	voice	338.828095759	FALSE	FALSE	FALSE	FALSE	FALSE	0	FALSE	FALSE	TRUE
e19	2015	08	27	18	02	m	21	r	15.022593503	1	67	125.833866725	1.48433298564	left	visual	left	tactile	target	voice	396.025757014	FALSE	FALSE	FALSE	FALSE	TRUE	0	FALSE	FALSE	TRUE
e19	2015	08	27	18	02	m	21	r	15.022593503	1	68	1.14101667603	0.988603234747	left	visual	right	visual	target	voice	883.291256905	FALSE	FALSE	FALSE	FALSE	FALSE	0	FALSE	FALSE	TRUE
e19	2015	08	27	18	02	m	21	r	15.022593503	1	69	1.04176801903	1.1978662876	left	tactile	right	visual	target	voice	332.08445803	FALSE	FALSE	FALSE	FALSE	FALSE	0	FALSE	FALSE	TRUE
e19	2015	08	27	18	02	m	21	r	15.022593503	1	70	5.53911078599	1.3929806554	right	tactile	right	tactile	target	voice	526.205888251	FALSE	FALSE	FALSE	FALSE	TRUE	0	FALSE	FALSE	TRUE
e19	2015	08	27	18	02	m	21	r	15.022593503	1	71	1.22588937898	1.13223916592	left	visual	left	visual	target	voice	561.465928738	FALSE	FALSE	FALSE	FALSE	FALSE	0	FALSE	FALSE	TRUE
e19	2015	08	27	18	02	m	21	r	15.022593503	1	72	0.927509828005	1.29228928697	right	visual	right	tactile	target	voice	302.202594641	FALSE	FALSE	FALSE	FALSE	FALSE	0	FALSE	FALSE	TRUE
e19	2015	08	27	18	02	m	21	r	15.022593503	1	73	11.182963243	0.826963631703	right	visual	right	tactile	catch	NA	NA	FALSE	FALSE	FALSE	FALSE	TRUE	0	FALSE	FALSE	TRUE
e19	2015	08	27	18	02	m	21	r	15.022593503	1	74	7.238527396	0.834632477891	left	tactile	right	visual	target	voice	571.412788762	FALSE	FALSE	FALSE	FALSE	FALSE	0	FALSE	FALSE	TRUE
e19	2015	08	27	18	02	m	21	r	15.022593503	1	75	17.643572785	0.520862979526	right	tactile	right	visual	catch	voice	NA	TRUE	FALSE	FALSE	FALSE	FALSE	0	FALSE	FALSE	FALSE
e19	2015	08	27	18	02	m	21	r	15.022593503	1	76	1.91273696598	0.599815131932	left	tactile	left	visual	target	voice	375.333591772	FALSE	FALSE	FALSE	FALSE	FALSE	0	FALSE	FALSE	TRUE
e19	2015	08	27	18	02	m	21	r	15.022593503	1	77	1.80545724102	0.54069371495	left	visual	left	visual	target	voice	467.532737763	FALSE	FALSE	FALSE	FALSE	FALSE	0	FALSE	FALSE	TRUE
e19	2015	08	27	18	02	m	21	r	15.022593503	1	78	1.49512755696	1.49893794487	right	visual	right	tactile	target	voice	297.254535777	FALSE	FALSE	FALSE	FALSE	FALSE	0	FALSE	FALSE	TRUE
e19	2015	08	27	18	02	m	21	r	15.022593503	1	79	0.558510302973	1.49683656333	right	visual	right	tactile	target	voice	NA	TRUE	FALSE	FALSE	FALSE	FALSE	0	FALSE	FALSE	FALSE
e19	2015	08	27	18	02	m	21	r	15.022593503	1	80	2.83786133595	1.22006916047	right	tactile	left	visual	target	voice	409.374219191	FALSE	FALSE	FALSE	TRUE	TRUE	0	FALSE	TRUE	TRUE
e19	2015	08	27	18	02	m	21	r	8.87759417703	1	81	2.462891492	0.601717749616	left	visual	right	visual	target	voice	482.776102028	FALSE	FALSE	FALSE	FALSE	FALSE	0	FALSE	FALSE	TRUE
e19	2015	08	27	18	02	m	21	r	8.87759417703	1	82	0.853548960004	1.19662961906	right	visual	left	visual	target	voice	NA	TRUE	FALSE	FALSE	FALSE	FALSE	0	FALSE	FALSE	FALSE
e19	2015	08	27	18	02	m	21	r	8.87759417703	1	83	0.954788176983	0.547509130196	left	tactile	left	visual	target	voice	480.180756422	FALSE	FALSE	FALSE	FALSE	FALSE	0	FALSE	FALSE	TRUE
e19	2015	08	27	18	02	m	21	r	8.87759417703	1	84	0.793186432973	1.36060245484	right	tactile	left	tactile	target	voice	NA	TRUE	FALSE	FALSE	FALSE	FALSE	0	FALSE	FALSE	FALSE
e19	2015	08	27	18	02	m	21	r	8.87759417703	1	85	0.819159863982	1.17135390024	right	tactile	left	tactile	target	voice	460.756138433	FALSE	FALSE	FALSE	FALSE	FALSE	0	FALSE	FALSE	TRUE
e19	2015	08	27	18	02	m	21	r	8.87759417703	1	86	15.3975451	0.616584373756	left	tactile	left	visual	target	voice	752.460688935	FALSE	FALSE	FALSE	FALSE	FALSE	0	FALSE	FALSE	TRUE
e19	2015	08	27	18	02	m	21	r	8.87759417703	1	87	0.863593165996	1.12585457275	left	visual	right	tactile	target	voice	401.660611911	FALSE	FALSE	FALSE	FALSE	FALSE	0	FALSE	FALSE	TRUE
e19	2015	08	27	18	02	m	21	r	8.87759417703	1	88	0.824598985026	1.04165008145	right	visual	left	tactile	target	voice	NA	TRUE	FALSE	FALSE	FALSE	FALSE	0	FALSE	FALSE	FALSE
e19	2015	08	27	18	02	m	21	r	8.87759417703	1	89	0.948237225995	1.03536247117	right	visual	left	visual	catch	NA	NA	FALSE	FALSE	FALSE	FALSE	FALSE	0	FALSE	FALSE	TRUE
e19	2015	08	27	18	02	m	21	r	8.87759417703	1	90	0.688443008985	0.90781893831	left	tactile	right	visual	target	voice	515.130540356	FALSE	FALSE	FALSE	FALSE	TRUE	0	FALSE	FALSE	TRUE
e19	2015	08	27	18	02	m	21	r	8.87759417703	1	91	6.541870563	0.732238499997	left	visual	right	visual	target	voice	604.083155689	FALSE	FALSE	FALSE	FALSE	FALSE	0	FALSE	FALSE	TRUE
e19	2015	08	27	18	02	m	21	r	8.87759417703	1	92	0.773604125017	0.652765522626	left	visual	left	visual	target	voice	461.419900006	FALSE	FALSE	FALSE	FALSE	FALSE	0	FALSE	FALSE	TRUE
e19	2015	08	27	18	02	m	21	r	8.87759417703	1	93	0.661791762977	1.45270960596	left	tactile	left	tactile	catch	voice	NA	TRUE	FALSE	FALSE	FALSE	FALSE	0	FALSE	FALSE	FALSE
e19	2015	08	27	18	02	m	21	r	8.87759417703	1	94	0.773051493976	0.58208498202	left	tactile	left	tactile	target	voice	446.928043675	FALSE	FALSE	FALSE	FALSE	FALSE	0	FALSE	FALSE	TRUE
e19	2015	08	27	18	02	m	21	r	8.87759417703	1	95	0.623134638008	1.34629707332	left	visual	left	tactile	target	voice	285.083769355	FALSE	FALSE	FALSE	FALSE	TRUE	0	FALSE	FALSE	TRUE
e19	2015	08	27	18	02	m	21	r	8.87759417703	1	96	0.404914855026	0.677441784122	right	visual	right	tactile	target	voice	356.728207553	FALSE	FALSE	FALSE	FALSE	FALSE	0	FALSE	FALSE	TRUE
e19	2015	08	27	18	02	m	21	r	8.87759417703	1	97	4.25575532101	0.547461060502	right	visual	right	tactile	target	voice	333.546051173	FALSE	FALSE	FALSE	FALSE	TRUE	0	FALSE	TRUE	TRUE
e19	2015	08	27	18	02	m	21	r	8.87759417703	1	98	0.411511457991	1.41558549358	right	tactile	right	tactile	catch	voice	NA	TRUE	FALSE	FALSE	FALSE	FALSE	0	FALSE	FALSE	FALSE
e19	2015	08	27	18	02	m	21	r	8.87759417703	1	99	0.59148025699	0.900726467779	right	tactile	right	tactile	target	voice	355.985975883	FALSE	FALSE	FALSE	FALSE	FALSE	0	FALSE	FALSE	TRUE
e19	2015	08	27	18	02	m	21	r	8.87759417703	1	100	0.394301742024	1.16281403941	left	visual	left	visual	catch	NA	NA	FALSE	FALSE	FALSE	FALSE	FALSE	0	FALSE	FALSE	TRUE
e19	2015	08	27	18	02	m	21	r	8.87759417703	1	101	0.639491425012	1.29156371774	right	tactile	left	tactile	target	voice	315.842934884	FALSE	FALSE	FALSE	FALSE	FALSE	0	FALSE	FALSE	TRUE
e19	2015	08	27	18	02	m	21	r	8.87759417703	1	102	5.08744642796	0.686997747842	right	visual	left	visual	target	voice	470.688592759	FALSE	FALSE	FALSE	FALSE	FALSE	0	FALSE	FALSE	TRUE
e19	2015	08	27	18	02	m	21	r	8.87759417703	1	103	0.505294918956	1.43390413119	left	visual	right	visual	target	voice	NA	TRUE	FALSE	FALSE	FALSE	FALSE	0	FALSE	FALSE	FALSE
e19	2015	08	27	18	02	m	21	r	8.87759417703	1	104	0.985290207027	1.46578638113	left	tactile	right	visual	target	voice	383.11910152	FALSE	FALSE	FALSE	FALSE	FALSE	0	FALSE	FALSE	TRUE
e19	2015	08	27	18	02	m	21	r	8.87759417703	1	105	0.395355956978	1.17003523928	left	tactile	right	visual	catch	NA	NA	FALSE	FALSE	FALSE	FALSE	TRUE	0	FALSE	FALSE	TRUE
e19	2015	08	27	18	02	m	21	r	8.87759417703	1	106	2.93457849999	1.45844203357	right	visual	left	tactile	target	voice	260.289327067	FALSE	FALSE	FALSE	FALSE	FALSE	0	FALSE	FALSE	TRUE
e19	2015	08	27	18	02	m	21	r	8.87759417703	1	107	0.784296546015	1.2276996083	left	tactile	left	visual	target	voice	422.270247363	FALSE	FALSE	FALSE	FALSE	FALSE	0	FALSE	FALSE	TRUE
e19	2015	08	27	18	02	m	21	r	8.87759417703	1	108	0.394929211005	1.33833109763	right	tactile	left	tactile	target	voice	281.185107015	FALSE	FALSE	FALSE	TRUE	FALSE	0	TRUE	FALSE	TRUE
e19	2015	08	27	18	02	m	21	r	8.87759417703	1	109	5.70953859598	1.04830720766	right	tactile	left	visual	target	voice	372.567336017	FALSE	FALSE	FALSE	FALSE	FALSE	0	FALSE	FALSE	TRUE
e19	2015	08	27	18	02	m	21	r	8.87759417703	1	110	0.391942343966	1.25427405723	left	tactile	left	visual	target	voice	434.756455419	FALSE	FALSE	FALSE	TRUE	FALSE	0	TRUE	FALSE	TRUE
e19	2015	08	27	18	02	m	21	r	8.87759417703	1	111	2.58982413099	0.967675318283	right	tactile	right	tactile	target	voice	334.444494394	FALSE	FALSE	FALSE	TRUE	FALSE	0	TRUE	FALSE	TRUE
e19	2015	08	27	18	02	m	21	r	8.87759417703	1	112	16.251981487	1.22698149774	right	tactile	right	tactile	target	voice	312.518266961	FALSE	FALSE	FALSE	TRUE	TRUE	0	TRUE	TRUE	TRUE
e19	2015	08	27	18	02	m	21	r	8.87759417703	1	113	22.848583178	1.16081570261	left	tactile	left	tactile	target	voice	NA	TRUE	FALSE	FALSE	FALSE	FALSE	0	FALSE	FALSE	FALSE
e19	2015	08	27	18	02	m	21	r	8.87759417703	1	114	0.424532448	1.28202715074	left	tactile	left	visual	target	voice	390.363069891	FALSE	FALSE	FALSE	FALSE	FALSE	0	FALSE	FALSE	TRUE
e19	2015	08	27	18	02	m	21	r	8.87759417703	1	115	0.417114237032	0.922589714247	right	visual	left	tactile	target	voice	445.782093448	FALSE	FALSE	FALSE	FALSE	FALSE	0	FALSE	FALSE	TRUE
e19	2015	08	27	18	02	m	21	r	8.87759417703	1	116	0.390919775004	1.13337407153	left	tactile	right	tactile	target	voice	302.014258166	FALSE	FALSE	FALSE	FALSE	FALSE	0	FALSE	FALSE	TRUE
e19	2015	08	27	18	02	m	21	r	8.87759417703	1	117	0.390678149008	0.663330136761	right	tactile	right	visual	target	voice	485.229502898	FALSE	FALSE	FALSE	FALSE	FALSE	0	FALSE	FALSE	TRUE
e19	2015	08	27	18	02	m	21	r	8.87759417703	1	118	0.39920203801	1.17613819486	left	visual	left	visual	target	NA	NA	FALSE	FALSE	FALSE	FALSE	FALSE	0	FALSE	FALSE	TRUE
e19	2015	08	27	18	02	m	21	r	8.87759417703	1	119	0.980330976017	0.590404767802	right	tactile	left	tactile	target	voice	564.468463883	FALSE	FALSE	FALSE	FALSE	FALSE	0	FALSE	FALSE	TRUE
e19	2015	08	27	18	02	m	21	r	8.87759417703	1	120	0.569701741973	0.569377586349	right	visual	left	visual	target	voice	469.021904282	FALSE	FALSE	FALSE	FALSE	FALSE	0	FALSE	FALSE	TRUE
e19	2015	08	27	18	02	m	21	r	95.380812409	1	121	2.53696594696	1.08748814818	left	tactile	right	visual	target	voice	NA	TRUE	FALSE	FALSE	FALSE	FALSE	0	FALSE	FALSE	FALSE
e19	2015	08	27	18	02	m	21	r	95.380812409	1	122	0.546368706971	0.776206204331	left	visual	right	visual	target	voice	494.691494387	FALSE	FALSE	FALSE	FALSE	FALSE	0	FALSE	FALSE	TRUE
e19	2015	08	27	18	02	m	21	r	95.380812409	1	123	0.393513264018	1.34346929069	right	tactile	right	visual	target	voice	316.97812496	FALSE	FALSE	FALSE	FALSE	TRUE	0	FALSE	TRUE	TRUE
e19	2015	08	27	18	02	m	21	r	95.380812409	1	124	2.699904632	0.603741131737	left	visual	left	visual	target	voice	417.387873982	FALSE	FALSE	FALSE	FALSE	FALSE	0	FALSE	FALSE	TRUE
e19	2015	08	27	18	02	m	21	r	95.380812409	1	125	28.643932518	1.1722403332	right	visual	right	visual	target	voice	410.39180744	FALSE	FALSE	FALSE	TRUE	TRUE	0	FALSE	FALSE	TRUE
e19	2015	08	27	18	02	m	21	r	95.380812409	1	126	0.395237240999	1.45849317776	left	tactile	left	tactile	target	voice	382.643384859	FALSE	FALSE	FALSE	FALSE	FALSE	0	FALSE	FALSE	TRUE
e19	2015	08	27	18	02	m	21	r	95.380812409	1	127	0.403427220997	0.839495194087	left	tactile	left	tactile	target	voice	535.916294553	FALSE	FALSE	FALSE	FALSE	FALSE	0	FALSE	FALSE	TRUE
e19	2015	08	27	18	02	m	21	r	95.380812409	1	128	0.401153815968	0.502018038053	right	tactile	right	visual	target	voice	304.348910577	FALSE	FALSE	FALSE	FALSE	FALSE	0	FALSE	FALSE	TRUE
e19	2015	08	27	18	02	m	21	r	95.380812409	1	129	0.403806763003	1.42793745837	left	tactile	left	visual	catch	NA	NA	FALSE	FALSE	FALSE	FALSE	FALSE	0	FALSE	FALSE	TRUE
e19	2015	08	27	18	02	m	21	r	95.380812409	1	130	0.780208026001	0.843838130822	right	visual	right	visual	target	voice	522.610891843	FALSE	FALSE	FALSE	FALSE	FALSE	0	FALSE	FALSE	TRUE
e19	2015	08	27	18	02	m	21	r	95.380812409	1	131	0.39294203202	1.41667741052	left	visual	right	visual	target	voice	279.270471074	FALSE	FALSE	FALSE	FALSE	FALSE	0	FALSE	FALSE	TRUE
e19	2015	08	27	18	02	m	21	r	95.380812409	1	132	18.971713498	1.18552345456	left	tactile	right	visual	target	voice	483.525920077	FALSE	FALSE	FALSE	FALSE	FALSE	0	FALSE	FALSE	TRUE
e19	2015	08	27	18	02	m	21	r	95.380812409	1	133	0.613454925013	0.893991620114	right	visual	left	visual	target	voice	409.900611616	FALSE	FALSE	FALSE	FALSE	TRUE	0	FALSE	FALSE	TRUE
e19	2015	08	27	18	02	m	21	r	95.380812409	1	134	0.602766540018	0.605870646105	right	tactile	left	visual	target	voice	389.573664521	FALSE	FALSE	FALSE	FALSE	TRUE	0	FALSE	TRUE	TRUE
e19	2015	08	27	18	02	m	21	r	95.380812409	1	135	0.541261326987	0.907419795475	right	visual	left	tactile	target	voice	237.830056169	FALSE	FALSE	FALSE	FALSE	TRUE	0	FALSE	TRUE	TRUE
e19	2015	08	27	18	02	m	21	r	95.380812409	1	136	0.401363589976	0.943008086729	left	tactile	left	visual	target	voice	341.711695946	FALSE	FALSE	FALSE	FALSE	TRUE	0	FALSE	FALSE	TRUE
e19	2015	08	27	18	02	m	21	r	95.380812409	1	137	0.399075981986	0.648596357016	left	visual	right	tactile	target	voice	265.907439636	FALSE	FALSE	FALSE	FALSE	FALSE	0	FALSE	FALSE	TRUE
e19	2015	08	27	18	02	m	21	r	95.380812409	1	138	0.394202141033	1.33957760168	right	tactile	left	visual	target	voice	NA	TRUE	FALSE	FALSE	FALSE	TRUE	0	FALSE	TRUE	FALSE
e19	2015	08	27	18	02	m	21	r	95.380812409	1	139	0.404041604954	1.39592977871	left	tactile	right	visual	target	voice	297.594859963	FALSE	FALSE	FALSE	FALSE	TRUE	0	FALSE	TRUE	TRUE
e19	2015	08	27	18	02	m	21	r	95.380812409	1	140	0.740146577999	0.532852366754	right	tactile	left	tactile	target	voice	NA	TRUE	FALSE	FALSE	FALSE	FALSE	0	FALSE	FALSE	FALSE
e19	2015	08	27	18	02	m	21	r	95.380812409	1	141	0.966021778004	0.523595250641	left	visual	left	tactile	target	voice	278.553831042	FALSE	FALSE	FALSE	FALSE	TRUE	0	FALSE	TRUE	TRUE
e19	2015	08	27	18	02	m	21	r	95.380812409	1	142	0.382298887009	0.981719008482	left	tactile	right	visual	target	voice	115.480381239	FALSE	FALSE	FALSE	FALSE	TRUE	0	FALSE	TRUE	TRUE
e19	2015	08	27	18	02	m	21	r	95.380812409	1	143	4.98884327605	0.878248286992	right	visual	left	tactile	target	voice	232.603370619	FALSE	FALSE	FALSE	FALSE	TRUE	0	FALSE	TRUE	TRUE
e19	2015	08	27	18	02	m	21	r	95.380812409	1	144	0.476943982998	1.46661777784	left	tactile	left	tactile	target	voice	NA	TRUE	FALSE	FALSE	FALSE	TRUE	0	FALSE	FALSE	FALSE
e19	2015	08	27	18	02	m	21	r	95.380812409	1	145	2.573024821	0.595110846947	right	tactile	right	visual	target	voice	295.362250705	FALSE	FALSE	FALSE	FALSE	TRUE	0	FALSE	TRUE	TRUE
e19	2015	08	27	18	02	m	21	r	95.380812409	1	146	0.403895804018	0.683777907525	left	tactile	right	tactile	target	voice	111.337527167	FALSE	FALSE	FALSE	FALSE	TRUE	0	FALSE	TRUE	TRUE
e19	2015	08	27	18	02	m	21	r	95.380812409	1	147	2.52080206998	0.629342515951	left	visual	left	visual	target	voice	189.132423722	FALSE	FALSE	FALSE	FALSE	TRUE	0	FALSE	TRUE	TRUE
e19	2015	08	27	18	02	m	21	r	95.380812409	1	148	1.55398480897	0.907423266175	right	visual	left	tactile	target	voice	45.9141054889	FALSE	FALSE	FALSE	FALSE	TRUE	0	FALSE	TRUE	TRUE
e19	2015	08	27	18	02	m	21	r	95.380812409	1	149	9.02450787398	1.49743590057	right	tactile	right	visual	target	voice	NA	TRUE	FALSE	FALSE	FALSE	TRUE	0	FALSE	FALSE	FALSE
e19	2015	08	27	18	02	m	21	r	95.380812409	1	150	0.564716298017	1.11299497069	right	visual	right	tactile	target	voice	455.773032969	FALSE	FALSE	FALSE	FALSE	TRUE	0	FALSE	TRUE	TRUE
e19	2015	08	27	18	02	m	21	r	95.380812409	1	151	0.464899296989	0.753915321445	left	tactile	left	tactile	target	voice	139.077290252	FALSE	FALSE	FALSE	FALSE	TRUE	0	FALSE	TRUE	TRUE
e19	2015	08	27	18	02	m	21	r	95.380812409	1	152	0.498804690025	1.14469945121	left	visual	right	visual	target	voice	206.933825451	FALSE	FALSE	FALSE	TRUE	TRUE	0	FALSE	TRUE	TRUE
e19	2015	08	27	18	02	m	21	r	95.380812409	1	153	2.48443764099	1.29434644099	right	visual	right	visual	target	voice	14.267409686	FALSE	FALSE	FALSE	FALSE	TRUE	0	FALSE	TRUE	TRUE
e19	2015	08	27	18	02	m	21	r	95.380812409	1	154	0.495972025965	1.47249992353	right	tactile	left	tactile	catch	voice	64.0668161213	FALSE	FALSE	FALSE	TRUE	TRUE	0	TRUE	TRUE	TRUE
e19	2015	08	27	18	02	m	21	r	95.380812409	1	155	3.58288954198	0.681265331463	right	tactile	right	tactile	target	voice	206.101151183	FALSE	FALSE	FALSE	FALSE	TRUE	0	FALSE	TRUE	TRUE
e19	2015	08	27	18	02	m	21	r	95.380812409	1	156	2.41042157001	0.621550154535	left	visual	right	visual	catch	voice	NA	TRUE	FALSE	FALSE	TRUE	FALSE	0	TRUE	FALSE	FALSE
e19	2015	08	27	18	02	m	21	r	95.380812409	1	157	0.63104083098	0.957247636478	right	tactile	left	tactile	target	voice	NA	TRUE	FALSE	FALSE	FALSE	TRUE	0	FALSE	TRUE	FALSE
e19	2015	08	27	18	02	m	21	r	95.380812409	1	158	2.69685033103	0.949406469431	left	visual	right	tactile	target	NA	NA	FALSE	FALSE	FALSE	FALSE	TRUE	0	FALSE	TRUE	TRUE
e19	2015	08	27	18	02	m	21	r	95.380812409	1	159	0.876413977996	1.06794943766	left	visual	left	tactile	target	voice	384.972566972	FALSE	FALSE	FALSE	FALSE	TRUE	0	FALSE	TRUE	TRUE
e19	2015	08	27	18	02	m	21	r	95.380812409	1	160	5.13917135604	0.619786773118	right	tactile	left	visual	target	voice	349.528233521	FALSE	FALSE	FALSE	FALSE	TRUE	0	FALSE	TRUE	TRUE
e19	2015	08	27	18	02	m	21	r	80.816174477	2	1	8.08008665999	0.609534437447	right	tactile	left	visual	target	voice	366.50673527	FALSE	FALSE	FALSE	FALSE	FALSE	0	FALSE	FALSE	TRUE
e19	2015	08	27	18	02	m	21	r	80.816174477	2	2	0.409724699974	0.798324458441	right	tactile	right	tactile	target	voice	71.8341942411	FALSE	FALSE	FALSE	FALSE	FALSE	0	FALSE	FALSE	TRUE
e19	2015	08	27	18	02	m	21	r	80.816174477	2	3	4.72530401603	1.4710408815	right	tactile	left	tactile	target	voice	229.774980166	FALSE	FALSE	FALSE	FALSE	FALSE	0	FALSE	FALSE	TRUE
e19	2015	08	27	18	02	m	21	r	80.816174477	2	4	0.750049313996	1.47710448427	left	visual	right	visual	target	voice	169.844295422	FALSE	FALSE	FALSE	FALSE	FALSE	0	FALSE	FALSE	TRUE
e19	2015	08	27	18	02	m	21	r	80.816174477	2	5	0.494420252042	1.17276050907	right	tactile	right	visual	target	voice	90.0700245984	FALSE	FALSE	FALSE	TRUE	TRUE	0	FALSE	FALSE	TRUE
e19	2015	08	27	18	02	m	21	r	80.816174477	2	6	86.14706033	1.46715428196	left	visual	right	visual	target	voice	356.013597688	FALSE	FALSE	FALSE	FALSE	FALSE	0	FALSE	FALSE	TRUE
e19	2015	08	27	18	02	m	21	r	80.816174477	2	7	9.11636582605	0.55276790416	right	tactile	left	tactile	target	voice	375.775926455	FALSE	FALSE	FALSE	FALSE	TRUE	0	FALSE	FALSE	TRUE
e19	2015	08	27	18	02	m	21	r	80.816174477	2	8	0.401581985992	0.832363882391	left	visual	left	tactile	catch	NA	NA	FALSE	FALSE	FALSE	FALSE	TRUE	0	FALSE	TRUE	TRUE
e19	2015	08	27	18	02	m	21	r	80.816174477	2	9	25.193044579	0.776685245772	right	tactile	left	visual	target	voice	NA	TRUE	FALSE	FALSE	TRUE	TRUE	0	FALSE	FALSE	FALSE
e19	2015	08	27	18	02	m	21	r	80.816174477	2	10	1.37143514899	0.571306907121	right	tactile	left	visual	target	voice	486.177544575	FALSE	FALSE	FALSE	FALSE	FALSE	0	FALSE	FALSE	TRUE
e19	2015	08	27	18	02	m	21	r	80.816174477	2	11	0.548354647006	0.602119648214	right	tactile	left	tactile	target	voice	297.601279453	FALSE	FALSE	FALSE	FALSE	FALSE	0	FALSE	FALSE	TRUE
e19	2015	08	27	18	02	m	21	r	80.816174477	2	12	0.450283983024	1.17980198116	left	tactile	right	visual	target	voice	NA	TRUE	FALSE	FALSE	FALSE	FALSE	0	FALSE	FALSE	FALSE
e19	2015	08	27	18	02	m	21	r	80.816174477	2	13	0.41370147001	1.05360202355	right	tactile	right	tactile	target	voice	261.215512059	FALSE	FALSE	FALSE	FALSE	FALSE	0	FALSE	FALSE	TRUE
e19	2015	08	27	18	02	m	21	r	80.816174477	2	14	2.45030054002	0.604619991545	right	visual	left	tactile	target	voice	349.263774115	FALSE	FALSE	FALSE	FALSE	FALSE	0	FALSE	FALSE	TRUE
e19	2015	08	27	18	02	m	21	r	80.816174477	2	15	8.50498272397	0.921234509543	right	visual	right	tactile	target	voice	272.398372064	FALSE	FALSE	FALSE	FALSE	FALSE	0	FALSE	FALSE	TRUE
e19	2015	08	27	18	02	m	21	r	80.816174477	2	16	5.11588632403	0.646394388421	left	visual	left	visual	target	voice	596.329194261	FALSE	FALSE	FALSE	FALSE	FALSE	0	FALSE	FALSE	TRUE
e19	2015	08	27	18	02	m	21	r	80.816174477	2	17	2.34496071003	1.12230127422	right	visual	left	visual	target	voice	130.887738487	FALSE	FALSE	FALSE	FALSE	FALSE	0	FALSE	FALSE	TRUE
e19	2015	08	27	18	02	m	21	r	80.816174477	2	18	0.403761113994	0.699967505245	left	visual	left	visual	target	voice	175.42602442	FALSE	FALSE	FALSE	FALSE	FALSE	0	FALSE	FALSE	TRUE
e19	2015	08	27	18	02	m	21	r	80.816174477	2	19	0.38215629902	0.53840297572	right	tactile	left	tactile	target	voice	34.8145719036	FALSE	FALSE	FALSE	FALSE	FALSE	0	FALSE	FALSE	TRUE
e19	2015	08	27	18	02	m	21	r	80.816174477	2	20	0.399107520003	1.13274135972	left	visual	right	visual	target	voice	101.124237	FALSE	FALSE	FALSE	FALSE	FALSE	0	FALSE	FALSE	TRUE
e19	2015	08	27	18	02	m	21	r	80.816174477	2	21	2.03529714403	1.22108754538	right	tactile	left	visual	target	voice	NA	TRUE	FALSE	FALSE	FALSE	FALSE	0	FALSE	FALSE	FALSE
e19	2015	08	27	18	02	m	21	r	80.816174477	2	22	0.445692737005	0.948730922407	right	visual	left	visual	target	voice	345.739484241	FALSE	FALSE	FALSE	FALSE	FALSE	0	FALSE	FALSE	TRUE
e19	2015	08	27	18	02	m	21	r	80.816174477	2	23	1.83160580898	0.998808162203	right	visual	left	tactile	target	voice	NA	TRUE	FALSE	FALSE	FALSE	FALSE	0	FALSE	FALSE	FALSE
e19	2015	08	27	18	02	m	21	r	80.816174477	2	24	0.396187240025	1.43252998099	right	tactile	right	tactile	target	voice	6.11445569666	FALSE	FALSE	FALSE	FALSE	FALSE	0	FALSE	FALSE	TRUE
e19	2015	08	27	18	02	m	21	r	80.816174477	2	25	0.766589569976	1.09423985598	left	visual	right	visual	target	voice	NA	TRUE	FALSE	FALSE	FALSE	FALSE	0	FALSE	FALSE	FALSE
e19	2015	08	27	18	02	m	21	r	80.816174477	2	26	1.27127866703	0.804286854873	left	tactile	right	tactile	target	voice	NA	TRUE	FALSE	FALSE	FALSE	FALSE	0	FALSE	FALSE	FALSE
e19	2015	08	27	18	02	m	21	r	80.816174477	2	27	1.18432731199	1.37885618493	right	tactile	right	tactile	target	voice	NA	TRUE	FALSE	FALSE	FALSE	FALSE	0	FALSE	FALSE	FALSE
e19	2015	08	27	18	02	m	21	r	80.816174477	2	28	0.430237366003	1.44853946758	right	visual	right	tactile	target	voice	322.99107709	FALSE	FALSE	FALSE	FALSE	FALSE	0	FALSE	FALSE	TRUE
e19	2015	08	27	18	02	m	21	r	80.816174477	2	29	0.395928150974	1.22928706493	right	tactile	right	visual	target	voice	170.468603726	FALSE	FALSE	FALSE	FALSE	FALSE	0	FALSE	FALSE	TRUE
e19	2015	08	27	18	02	m	21	r	80.816174477	2	30	0.50601966097	1.33208866403	right	tactile	right	visual	target	voice	133.115747711	FALSE	FALSE	FALSE	FALSE	FALSE	0	FALSE	FALSE	TRUE
e19	2015	08	27	18	02	m	21	r	80.816174477	2	31	0.48734618898	0.909784297396	right	tactile	left	visual	target	voice	309.027102252	FALSE	FALSE	FALSE	FALSE	FALSE	0	FALSE	FALSE	TRUE
e19	2015	08	27	18	02	m	21	r	80.816174477	2	32	0.406113645993	0.615525326469	left	visual	left	visual	target	voice	298.008346173	FALSE	FALSE	FALSE	FALSE	FALSE	0	FALSE	FALSE	TRUE
e19	2015	08	27	18	02	m	21	r	80.816174477	2	33	0.502381455037	1.43752178921	left	visual	right	tactile	target	voice	NA	TRUE	FALSE	FALSE	FALSE	FALSE	0	FALSE	FALSE	FALSE
e19	2015	08	27	18	02	m	21	r	80.816174477	2	34	0.463512232993	0.501529771023	left	tactile	left	visual	target	voice	833.575713681	FALSE	FALSE	FALSE	FALSE	FALSE	0	FALSE	FALSE	TRUE
e19	2015	08	27	18	02	m	21	r	80.816174477	2	35	0.402033774997	0.753136370571	right	visual	right	tactile	target	voice	197.491019091	FALSE	FALSE	FALSE	FALSE	FALSE	0	FALSE	FALSE	TRUE
e19	2015	08	27	18	02	m	21	r	80.816174477	2	36	0.409640576981	1.03486024104	left	tactile	left	tactile	target	voice	249.773413641	FALSE	FALSE	FALSE	FALSE	FALSE	0	FALSE	FALSE	TRUE
e19	2015	08	27	18	02	m	21	r	80.816174477	2	37	0.392702408019	1.26796707886	right	tactile	left	tactile	target	voice	177.894358814	FALSE	FALSE	FALSE	FALSE	FALSE	0	FALSE	FALSE	TRUE
e19	2015	08	27	18	02	m	21	r	80.816174477	2	38	0.405676495051	0.779799242796	left	visual	right	visual	target	voice	318.426560902	FALSE	FALSE	FALSE	FALSE	FALSE	0	FALSE	FALSE	TRUE
e19	2015	08	27	18	02	m	21	r	80.816174477	2	39	0.385678699007	0.663082603327	left	tactile	left	visual	target	voice	316.571338335	FALSE	FALSE	FALSE	FALSE	FALSE	0	FALSE	FALSE	TRUE
e19	2015	08	27	18	02	m	21	r	80.816174477	2	40	0.403723250958	1.28467290883	right	visual	left	tactile	catch	voice	166.810680879	FALSE	FALSE	FALSE	FALSE	FALSE	0	FALSE	FALSE	TRUE
e19	2015	08	27	18	02	m	21	r	14.14642635	2	41	1.69124130701	0.550212508068	right	tactile	right	tactile	target	voice	254.441463621	FALSE	FALSE	FALSE	FALSE	FALSE	0	FALSE	FALSE	TRUE
e19	2015	08	27	18	02	m	21	r	14.14642635	2	42	1.68695859	1.34265190647	right	visual	left	visual	target	voice	329.784321133	FALSE	FALSE	FALSE	FALSE	TRUE	0	FALSE	FALSE	TRUE
e19	2015	08	27	18	02	m	21	r	14.14642635	2	43	2.15918374405	0.837896645116	left	tactile	left	tactile	target	voice	297.778936569	FALSE	FALSE	FALSE	FALSE	FALSE	0	FALSE	FALSE	TRUE
e19	2015	08	27	18	02	m	21	r	14.14642635	2	44	0.401512223994	1.34321226219	right	visual	right	visual	target	voice	149.573879491	FALSE	FALSE	FALSE	FALSE	FALSE	0	FALSE	FALSE	TRUE
e19	2015	08	27	18	02	m	21	r	14.14642635	2	45	4.52709927899	1.0870613288	right	visual	left	tactile	target	voice	370.418404869	FALSE	FALSE	FALSE	FALSE	FALSE	0	FALSE	FALSE	TRUE
e19	2015	08	27	18	02	m	21	r	14.14642635	2	46	0.469050854037	0.522665376589	left	visual	left	tactile	target	voice	533.55537809	FALSE	FALSE	FALSE	FALSE	FALSE	0	FALSE	FALSE	TRUE
e19	2015	08	27	18	02	m	21	r	14.14642635	2	47	0.601486579981	1.47480067771	right	visual	right	visual	target	voice	296.440788952	FALSE	FALSE	FALSE	FALSE	FALSE	0	FALSE	FALSE	TRUE
e19	2015	08	27	18	02	m	21	r	14.14642635	2	48	7.23099129199	1.07540013119	left	visual	left	visual	catch	NA	NA	FALSE	FALSE	FALSE	FALSE	FALSE	0	FALSE	FALSE	TRUE
e19	2015	08	27	18	02	m	21	r	14.14642635	2	49	0.838942322007	1.16232155555	left	visual	right	tactile	target	voice	345.836879162	FALSE	FALSE	FALSE	FALSE	TRUE	0	FALSE	TRUE	TRUE
e19	2015	08	27	18	02	m	21	r	14.14642635	2	50	0.448405828036	1.04893253622	right	visual	left	tactile	target	voice	315.744998457	FALSE	FALSE	FALSE	FALSE	FALSE	0	FALSE	FALSE	TRUE
e19	2015	08	27	18	02	m	21	r	14.14642635	2	51	14.227571501	1.34779400441	left	visual	right	visual	catch	NA	NA	FALSE	FALSE	FALSE	FALSE	TRUE	0	FALSE	TRUE	TRUE
e19	2015	08	27	18	02	m	21	r	14.14642635	2	52	0.943092180998	1.08674696856	right	tactile	left	tactile	target	voice	475.968775048	FALSE	FALSE	FALSE	FALSE	FALSE	0	FALSE	FALSE	TRUE
e19	2015	08	27	18	02	m	21	r	14.14642635	2	53	5.15625755501	0.589878091551	left	tactile	left	tactile	target	voice	NA	TRUE	FALSE	FALSE	FALSE	FALSE	0	FALSE	FALSE	FALSE
e19	2015	08	27	18	02	m	21	r	14.14642635	2	54	2.353986523	0.547986647056	right	visual	right	visual	target	voice	398.635385616	FALSE	FALSE	FALSE	FALSE	FALSE	0	FALSE	FALSE	TRUE
e19	2015	08	27	18	02	m	21	r	14.14642635	2	55	0.471961528005	0.778359722225	right	visual	right	visual	target	voice	367.955433438	FALSE	FALSE	FALSE	FALSE	FALSE	0	FALSE	FALSE	TRUE
e19	2015	08	27	18	02	m	21	r	14.14642635	2	56	0.403560133011	0.936010655316	right	tactile	right	tactile	target	voice	241.584251344	FALSE	FALSE	FALSE	FALSE	FALSE	0	FALSE	FALSE	TRUE
e19	2015	08	27	18	02	m	21	r	14.14642635	2	57	0.398395750031	0.67816486248	right	tactile	right	visual	catch	NA	NA	FALSE	FALSE	FALSE	FALSE	FALSE	0	FALSE	FALSE	TRUE
e19	2015	08	27	18	02	m	21	r	14.14642635	2	58	0.443193663028	1.23215060935	left	tactile	right	visual	target	voice	475.407593301	FALSE	FALSE	FALSE	FALSE	FALSE	0	FALSE	FALSE	TRUE
e19	2015	08	27	18	02	m	21	r	14.14642635	2	59	0.403913229005	1.2338214479	left	visual	left	tactile	target	voice	269.081077829	FALSE	FALSE	FALSE	FALSE	FALSE	0	FALSE	FALSE	TRUE
e19	2015	08	27	18	02	m	21	r	14.14642635	2	60	0.397309235006	1.14589647148	right	tactile	right	visual	target	voice	415.526464174	FALSE	FALSE	FALSE	FALSE	FALSE	0	FALSE	FALSE	TRUE
e19	2015	08	27	18	02	m	21	r	14.14642635	2	61	2.39742039295	1.00377030063	left	tactile	right	visual	target	voice	196.62871398	FALSE	FALSE	FALSE	FALSE	FALSE	0	FALSE	FALSE	TRUE
e19	2015	08	27	18	02	m	21	r	14.14642635	2	62	2.42605561705	0.963631961148	right	tactile	left	visual	target	voice	95.3872135142	FALSE	FALSE	FALSE	FALSE	TRUE	0	FALSE	TRUE	TRUE
e19	2015	08	27	18	02	m	21	r	14.14642635	2	63	0.722380164021	1.28444553769	left	tactile	left	visual	target	voice	394.324230962	FALSE	FALSE	FALSE	FALSE	FALSE	0	FALSE	FALSE	TRUE
e19	2015	08	27	18	02	m	21	r	14.14642635	2	64	0.442877423018	0.713316798563	left	tactile	left	visual	target	voice	316.516147112	FALSE	FALSE	FALSE	FALSE	FALSE	0	FALSE	FALSE	TRUE
e19	2015	08	27	18	02	m	21	r	14.14642635	2	65	4.44662184099	0.537715628711	right	visual	left	visual	target	voice	268.981578934	FALSE	FALSE	FALSE	FALSE	FALSE	0	FALSE	FALSE	TRUE
e19	2015	08	27	18	02	m	21	r	14.14642635	2	66	0.446491154027	0.503899505021	left	tactile	right	tactile	target	voice	316.306986613	FALSE	FALSE	FALSE	FALSE	FALSE	0	FALSE	FALSE	TRUE
e19	2015	08	27	18	02	m	21	r	14.14642635	2	67	52.340337262	1.26484717234	right	tactile	right	visual	target	voice	447.870076285	FALSE	FALSE	FALSE	FALSE	FALSE	0	FALSE	FALSE	TRUE
e19	2015	08	27	18	02	m	21	r	14.14642635	2	68	6.11283835402	1.05831540667	right	visual	left	tactile	target	voice	479.22710696	FALSE	FALSE	FALSE	FALSE	FALSE	0	FALSE	FALSE	TRUE
e19	2015	08	27	18	02	m	21	r	14.14642635	2	69	0.472895652987	0.844433129006	left	visual	left	visual	target	voice	480.708561605	FALSE	FALSE	FALSE	FALSE	FALSE	0	FALSE	FALSE	TRUE
e19	2015	08	27	18	02	m	21	r	14.14642635	2	70	0.608049806033	1.49224148089	right	visual	right	visual	catch	NA	NA	FALSE	FALSE	FALSE	FALSE	FALSE	0	FALSE	FALSE	TRUE
e19	2015	08	27	18	02	m	21	r	14.14642635	2	71	0.618073797028	0.952483944689	right	tactile	right	visual	target	voice	335.98402096	FALSE	FALSE	FALSE	FALSE	FALSE	0	FALSE	FALSE	TRUE
e19	2015	08	27	18	02	m	21	r	14.14642635	2	72	0.584695079015	1.4699539022	left	tactile	right	tactile	target	voice	157.816389459	FALSE	FALSE	FALSE	FALSE	FALSE	0	FALSE	FALSE	TRUE
e19	2015	08	27	18	02	m	21	r	14.14642635	2	73	0.466614629026	0.874892023424	left	tactile	right	tactile	target	voice	590.850483219	FALSE	FALSE	FALSE	FALSE	FALSE	0	FALSE	FALSE	TRUE
e19	2015	08	27	18	02	m	21	r	14.14642635	2	74	0.442391323973	0.506702072382	left	visual	left	tactile	target	voice	355.07442028	FALSE	FALSE	FALSE	FALSE	FALSE	0	FALSE	FALSE	TRUE
e19	2015	08	27	18	02	m	21	r	14.14642635	2	75	0.759688413003	1.02388774243	left	tactile	right	visual	catch	voice	224.870125239	FALSE	FALSE	FALSE	FALSE	FALSE	0	FALSE	FALSE	TRUE
e19	2015	08	27	18	02	m	21	r	14.14642635	2	76	0.66074089997	1.33811672416	left	tactile	right	tactile	target	voice	85.6766485376	FALSE	FALSE	FALSE	FALSE	FALSE	0	FALSE	FALSE	TRUE
e19	2015	08	27	18	02	m	21	r	14.14642635	2	77	0.604770609003	1.43229363491	right	tactile	right	tactile	target	voice	352.482487739	FALSE	FALSE	FALSE	FALSE	FALSE	0	FALSE	FALSE	TRUE
e19	2015	08	27	18	02	m	21	r	14.14642635	2	78	0.501066842	1.18487048591	left	tactile	left	visual	target	voice	248.632381728	FALSE	FALSE	FALSE	FALSE	FALSE	0	FALSE	FALSE	TRUE
e19	2015	08	27	18	02	m	21	r	14.14642635	2	79	2.80162940198	1.46739580392	left	tactile	left	tactile	target	voice	563.249749714	FALSE	FALSE	FALSE	FALSE	FALSE	0	FALSE	FALSE	TRUE
e19	2015	08	27	18	02	m	21	r	14.14642635	2	80	0.71019284497	1.0869259967	left	visual	left	tactile	target	voice	296.676213969	FALSE	FALSE	FALSE	FALSE	FALSE	0	FALSE	FALSE	TRUE
e19	2015	08	27	18	02	m	21	r	14.400244401	2	81	5.49933614401	1.48618065832	left	tactile	right	visual	target	voice	460.801178357	FALSE	FALSE	FALSE	FALSE	FALSE	0	FALSE	FALSE	TRUE
e19	2015	08	27	18	02	m	21	r	14.400244401	2	82	0.835444937053	0.673094699476	left	tactile	left	tactile	target	voice	294.684034248	FALSE	FALSE	FALSE	FALSE	FALSE	0	FALSE	FALSE	TRUE
e19	2015	08	27	18	02	m	21	r	14.400244401	2	83	0.603506624	0.784731200591	right	visual	right	tactile	target	voice	204.268710047	FALSE	FALSE	FALSE	FALSE	FALSE	0	FALSE	FALSE	TRUE
e19	2015	08	27	18	02	m	21	r	14.400244401	2	84	0.467626538011	1.29745794389	right	visual	right	tactile	catch	voice	99.3321257993	FALSE	FALSE	FALSE	FALSE	FALSE	0	FALSE	FALSE	TRUE
e19	2015	08	27	18	02	m	21	r	14.400244401	2	85	0.58125478396	0.687451359862	left	tactile	right	tactile	catch	voice	480.114191771	FALSE	FALSE	FALSE	FALSE	FALSE	0	FALSE	FALSE	TRUE
e19	2015	08	27	18	02	m	21	r	14.400244401	2	86	0.575017078023	0.864749760086	right	tactile	left	visual	catch	NA	NA	FALSE	FALSE	FALSE	FALSE	FALSE	0	FALSE	FALSE	TRUE
e19	2015	08	27	18	02	m	21	r	14.400244401	2	87	0.681567505002	0.788888072022	right	tactile	left	visual	target	voice	306.570927612	FALSE	FALSE	FALSE	FALSE	FALSE	0	FALSE	FALSE	TRUE
e19	2015	08	27	18	02	m	21	r	14.400244401	2	88	0.601572010957	0.900695389929	left	visual	right	tactile	target	voice	204.265890759	FALSE	FALSE	FALSE	FALSE	FALSE	0	FALSE	FALSE	TRUE
e19	2015	08	27	18	02	m	21	r	14.400244401	2	89	0.417800744006	0.732497634321	right	tactile	left	visual	target	voice	324.164473335	FALSE	FALSE	FALSE	FALSE	FALSE	0	FALSE	FALSE	TRUE
e19	2015	08	27	18	02	m	21	r	14.400244401	2	90	3.441967124	1.41363712691	left	tactile	left	visual	target	voice	310.566740751	FALSE	FALSE	FALSE	FALSE	FALSE	0	FALSE	FALSE	TRUE
e19	2015	08	27	18	02	m	21	r	14.400244401	2	91	0.570736058988	1.42292701813	left	tactile	right	tactile	target	voice	214.399620541	FALSE	FALSE	FALSE	FALSE	TRUE	0	FALSE	TRUE	TRUE
e19	2015	08	27	18	02	m	21	r	14.400244401	2	92	0.453814401	0.873254945912	left	tactile	left	tactile	target	voice	236.621774733	FALSE	FALSE	FALSE	FALSE	FALSE	0	FALSE	FALSE	TRUE
e19	2015	08	27	18	02	m	21	r	14.400244401	2	93	0.442409029987	1.44530250995	left	visual	right	tactile	target	voice	NA	TRUE	FALSE	FALSE	FALSE	FALSE	0	FALSE	FALSE	FALSE
e19	2015	08	27	18	02	m	21	r	14.400244401	2	94	0.673623210052	1.25815270183	right	visual	right	tactile	target	voice	329.478359839	FALSE	FALSE	FALSE	FALSE	FALSE	0	FALSE	FALSE	TRUE
e19	2015	08	27	18	02	m	21	r	14.400244401	2	95	0.450470653013	0.773622856433	left	tactile	left	visual	target	voice	321.250160225	FALSE	FALSE	FALSE	FALSE	FALSE	0	FALSE	FALSE	TRUE
e19	2015	08	27	18	02	m	21	r	14.400244401	2	96	0.593469173997	0.786415387957	left	tactile	left	tactile	target	voice	172.703331744	FALSE	FALSE	FALSE	FALSE	FALSE	0	FALSE	FALSE	TRUE
e19	2015	08	27	18	02	m	21	r	14.400244401	2	97	0.404335729021	1.01768610374	left	visual	left	visual	target	voice	NA	TRUE	FALSE	FALSE	FALSE	FALSE	0	FALSE	FALSE	FALSE
e19	2015	08	27	18	02	m	21	r	14.400244401	2	98	0.864751668007	1.37787059954	right	visual	right	tactile	target	voice	70.4478290863	FALSE	FALSE	FALSE	FALSE	FALSE	0	FALSE	FALSE	TRUE
e19	2015	08	27	18	02	m	21	r	14.400244401	2	99	0.396030981967	0.735386004177	right	tactile	right	visual	target	voice	394.781990442	FALSE	FALSE	FALSE	FALSE	FALSE	0	FALSE	FALSE	TRUE
e19	2015	08	27	18	02	m	21	r	14.400244401	2	100	0.45006993803	0.751003148762	left	tactile	right	visual	target	voice	77.8977898881	FALSE	FALSE	FALSE	FALSE	FALSE	0	FALSE	FALSE	TRUE
e19	2015	08	27	18	02	m	21	r	14.400244401	2	101	6.26516293199	1.30043258155	left	visual	right	visual	target	voice	296.098106133	FALSE	FALSE	FALSE	FALSE	FALSE	0	FALSE	FALSE	TRUE
e19	2015	08	27	18	02	m	21	r	14.400244401	2	102	0.507536347024	1.24955205185	left	tactile	right	visual	target	voice	99.4040897931	FALSE	FALSE	FALSE	FALSE	FALSE	0	FALSE	FALSE	TRUE
e19	2015	08	27	18	02	m	21	r	14.400244401	2	103	0.577277128992	0.867058518259	right	tactile	left	tactile	target	voice	359.30432938	FALSE	FALSE	FALSE	FALSE	FALSE	0	FALSE	FALSE	TRUE
e19	2015	08	27	18	02	m	21	r	14.400244401	2	104	0.409968027961	1.48285730814	right	tactile	left	tactile	target	voice	NA	TRUE	FALSE	FALSE	FALSE	FALSE	0	FALSE	FALSE	FALSE
e19	2015	08	27	18	02	m	21	r	14.400244401	2	105	0.595304959978	1.07300139117	left	tactile	right	visual	target	voice	463.753276446	FALSE	FALSE	FALSE	FALSE	FALSE	0	FALSE	FALSE	TRUE
e19	2015	08	27	18	02	m	21	r	14.400244401	2	106	0.488933907996	0.60137764561	right	visual	left	visual	catch	NA	NA	FALSE	FALSE	FALSE	FALSE	FALSE	0	FALSE	FALSE	TRUE
e19	2015	08	27	18	02	m	21	r	14.400244401	2	107	0.57543623005	1.33081136754	left	tactile	left	visual	catch	NA	NA	FALSE	FALSE	FALSE	FALSE	FALSE	0	FALSE	FALSE	TRUE
e19	2015	08	27	18	02	m	21	r	14.400244401	2	108	0.713321994001	1.06891545879	left	visual	left	visual	target	voice	493.762996863	FALSE	FALSE	FALSE	FALSE	FALSE	0	FALSE	FALSE	TRUE
e19	2015	08	27	18	02	m	21	r	14.400244401	2	109	0.407512610022	0.743413287548	left	visual	left	tactile	target	voice	422.407366103	FALSE	FALSE	FALSE	FALSE	FALSE	0	FALSE	FALSE	TRUE
e19	2015	08	27	18	02	m	21	r	14.400244401	2	110	0.403301416954	1.47761029933	right	visual	left	visual	target	voice	508.717377379	FALSE	FALSE	FALSE	FALSE	FALSE	0	FALSE	FALSE	TRUE
e19	2015	08	27	18	02	m	21	r	14.400244401	2	111	0.418444377021	0.831395870385	left	visual	left	tactile	target	NA	NA	FALSE	FALSE	FALSE	FALSE	FALSE	0	FALSE	FALSE	TRUE
e19	2015	08	27	18	02	m	21	r	14.400244401	2	112	1.28968304803	1.03347934111	left	visual	right	visual	target	voice	NA	TRUE	FALSE	FALSE	FALSE	FALSE	0	FALSE	FALSE	FALSE
e19	2015	08	27	18	02	m	21	r	14.400244401	2	113	1.72672540101	0.817189789044	right	visual	left	tactile	target	voice	NA	TRUE	FALSE	FALSE	FALSE	FALSE	0	FALSE	FALSE	FALSE
e19	2015	08	27	18	02	m	21	r	14.400244401	2	114	1.85958791099	0.587120496018	left	tactile	right	tactile	target	voice	334.82695563	FALSE	FALSE	FALSE	FALSE	FALSE	0	FALSE	FALSE	TRUE
e19	2015	08	27	18	02	m	21	r	14.400244401	2	115	0.721670156985	1.13784756365	left	tactile	left	visual	target	voice	455.138945952	FALSE	FALSE	FALSE	FALSE	FALSE	0	FALSE	FALSE	TRUE
e19	2015	08	27	18	02	m	21	r	14.400244401	2	116	0.593142738973	1.25643189708	left	tactile	right	visual	target	voice	290.083795553	FALSE	FALSE	FALSE	FALSE	FALSE	0	FALSE	FALSE	TRUE
e19	2015	08	27	18	02	m	21	r	14.400244401	2	117	0.431696905987	0.70231521292	left	visual	right	tactile	catch	NA	NA	FALSE	FALSE	FALSE	FALSE	FALSE	0	FALSE	FALSE	TRUE
e19	2015	08	27	18	02	m	21	r	14.400244401	2	118	0.568400571996	1.38999381346	left	visual	left	visual	target	voice	603.626954195	FALSE	FALSE	FALSE	FALSE	FALSE	0	FALSE	FALSE	TRUE
e19	2015	08	27	18	02	m	21	r	14.400244401	2	119	0.675625418953	1.0983726454	right	visual	right	visual	target	voice	438.250202278	FALSE	FALSE	FALSE	FALSE	FALSE	0	FALSE	FALSE	TRUE
e19	2015	08	27	18	02	m	21	r	14.400244401	2	120	0.408590874984	1.4914883672	left	visual	left	visual	target	voice	487.613195437	FALSE	FALSE	FALSE	FALSE	FALSE	0	FALSE	FALSE	TRUE
e19	2015	08	27	18	02	m	21	r	8.60727697297	2	121	1.33963203698	1.28063178597	right	tactile	right	visual	target	voice	250.690508692	FALSE	FALSE	FALSE	FALSE	FALSE	0	FALSE	FALSE	TRUE
e19	2015	08	27	18	02	m	21	r	8.60727697297	2	122	0.452469401003	0.614883663745	left	tactile	right	visual	target	voice	337.52766886	FALSE	FALSE	FALSE	FALSE	FALSE	0	FALSE	FALSE	TRUE
e19	2015	08	27	18	02	m	21	r	8.60727697297	2	123	0.403274695971	0.905220193462	left	visual	right	visual	target	voice	77.9372692341	FALSE	FALSE	FALSE	FALSE	FALSE	0	FALSE	FALSE	TRUE
e19	2015	08	27	18	02	m	21	r	8.60727697297	2	124	0.416010054993	1.35027962504	right	tactile	left	tactile	catch	NA	NA	FALSE	FALSE	FALSE	FALSE	FALSE	0	FALSE	FALSE	TRUE
e19	2015	08	27	18	02	m	21	r	8.60727697297	2	125	0.413047726033	0.856038831579	left	visual	right	tactile	target	voice	175.422548084	FALSE	FALSE	FALSE	FALSE	FALSE	0	FALSE	FALSE	TRUE
e19	2015	08	27	18	02	m	21	r	8.60727697297	2	126	0.400905070012	1.31741173289	right	visual	right	visual	target	voice	104.49540877	FALSE	FALSE	FALSE	FALSE	FALSE	0	FALSE	FALSE	TRUE
e19	2015	08	27	18	02	m	21	r	8.60727697297	2	127	0.399305700965	1.36436578775	right	visual	right	visual	target	voice	578.872878919	FALSE	FALSE	FALSE	FALSE	FALSE	0	FALSE	FALSE	TRUE
e19	2015	08	27	18	02	m	21	r	8.60727697297	2	128	0.442438867001	0.72382033155	left	tactile	right	tactile	target	voice	94.050214102	FALSE	FALSE	FALSE	FALSE	FALSE	0	FALSE	FALSE	TRUE
e19	2015	08	27	18	02	m	21	r	8.60727697297	2	129	0.860261520953	0.593805823679	left	visual	right	tactile	target	voice	NA	TRUE	FALSE	FALSE	FALSE	FALSE	0	FALSE	FALSE	FALSE
e19	2015	08	27	18	02	m	21	r	8.60727697297	2	130	0.411712297006	0.990468926781	right	visual	left	tactile	target	voice	239.365602843	FALSE	FALSE	FALSE	FALSE	FALSE	0	FALSE	FALSE	TRUE
e19	2015	08	27	18	02	m	21	r	8.60727697297	2	131	0.397916376998	1.38198178691	left	visual	left	tactile	target	voice	184.736678784	FALSE	FALSE	FALSE	FALSE	FALSE	0	FALSE	FALSE	TRUE
e19	2015	08	27	18	02	m	21	r	8.60727697297	2	132	0.414719764027	0.922516861602	right	visual	left	tactile	target	voice	278.213710117	FALSE	FALSE	FALSE	FALSE	FALSE	0	FALSE	FALSE	TRUE
e19	2015	08	27	18	02	m	21	r	8.60727697297	2	133	0.415785630001	1.07621270164	left	tactile	left	tactile	catch	voice	32.0069330628	FALSE	FALSE	FALSE	FALSE	FALSE	0	FALSE	FALSE	TRUE
e19	2015	08	27	18	02	m	21	r	8.60727697297	2	134	0.571009013976	0.613456997499	right	visual	right	visual	target	voice	389.855663176	FALSE	FALSE	FALSE	FALSE	FALSE	0	FALSE	FALSE	TRUE
e19	2015	08	27	18	02	m	21	r	8.60727697297	2	135	0.54412512097	0.594634560248	right	visual	left	visual	target	voice	302.725125395	FALSE	FALSE	FALSE	FALSE	FALSE	0	FALSE	FALSE	TRUE
e19	2015	08	27	18	02	m	21	r	8.60727697297	2	136	0.413173407956	0.866977376222	right	visual	right	tactile	target	voice	111.614953435	FALSE	FALSE	FALSE	FALSE	FALSE	0	FALSE	FALSE	TRUE
e19	2015	08	27	18	02	m	21	r	8.60727697297	2	137	0.451273942017	1.48695758078	left	visual	left	tactile	target	voice	136.34229888	FALSE	FALSE	FALSE	FALSE	FALSE	0	FALSE	FALSE	TRUE
e19	2015	08	27	18	02	m	21	r	8.60727697297	2	138	0.467967685021	0.804239429612	left	visual	right	tactile	target	voice	234.638411086	FALSE	FALSE	FALSE	FALSE	FALSE	0	FALSE	FALSE	TRUE
e19	2015	08	27	18	02	m	21	r	8.60727697297	2	139	0.39734144503	1.43500378733	right	tactile	left	visual	target	voice	NA	TRUE	FALSE	FALSE	FALSE	FALSE	0	FALSE	FALSE	FALSE
e19	2015	08	27	18	02	m	21	r	8.60727697297	2	140	0.492744759016	1.13932982559	left	tactile	left	tactile	target	voice	333.809180069	FALSE	FALSE	FALSE	FALSE	TRUE	0	FALSE	FALSE	TRUE
e19	2015	08	27	18	02	m	21	r	8.60727697297	2	141	0.418218150036	1.10223116745	right	visual	left	tactile	target	voice	67.6444732235	FALSE	FALSE	FALSE	FALSE	FALSE	0	FALSE	FALSE	TRUE
e19	2015	08	27	18	02	m	21	r	8.60727697297	2	142	0.442717606958	1.27608852946	right	tactile	right	tactile	target	voice	95.6741982372	FALSE	FALSE	FALSE	FALSE	FALSE	0	FALSE	FALSE	TRUE
e19	2015	08	27	18	02	m	21	r	8.60727697297	2	143	0.462875245954	0.852184414958	right	visual	left	visual	target	voice	354.316549667	FALSE	FALSE	FALSE	FALSE	FALSE	0	FALSE	FALSE	TRUE
e19	2015	08	27	18	02	m	21	r	8.60727697297	2	144	0.541477979976	0.941481166683	right	tactile	right	visual	target	voice	689.564583008	FALSE	FALSE	FALSE	FALSE	FALSE	0	FALSE	FALSE	TRUE
e19	2015	08	27	18	02	m	21	r	8.60727697297	2	145	0.420853648044	1.49706437132	left	visual	right	visual	target	voice	272.023278347	FALSE	FALSE	FALSE	FALSE	FALSE	0	FALSE	FALSE	TRUE
e19	2015	08	27	18	02	m	21	r	8.60727697297	2	146	0.468265001953	0.569656313813	left	visual	left	tactile	target	voice	200.94857685	FALSE	FALSE	FALSE	FALSE	FALSE	0	FALSE	FALSE	TRUE
e19	2015	08	27	18	02	m	21	r	8.60727697297	2	147	0.41677216097	1.28164851179	right	visual	left	visual	target	voice	15.511225909	FALSE	FALSE	FALSE	FALSE	FALSE	0	FALSE	FALSE	TRUE
e19	2015	08	27	18	02	m	21	r	8.60727697297	2	148	0.425987062976	1.24124098914	right	visual	right	tactile	target	voice	284.258403524	FALSE	FALSE	FALSE	FALSE	FALSE	0	FALSE	FALSE	TRUE
e19	2015	08	27	18	02	m	21	r	8.60727697297	2	149	0.400169870991	1.24687514162	left	visual	left	visual	target	voice	NA	TRUE	FALSE	FALSE	FALSE	FALSE	0	FALSE	FALSE	FALSE
e19	2015	08	27	18	02	m	21	r	8.60727697297	2	150	0.682292804995	0.58120417666	right	tactile	right	tactile	target	voice	531.042227987	FALSE	FALSE	FALSE	FALSE	FALSE	0	FALSE	FALSE	TRUE
e19	2015	08	27	18	02	m	21	r	8.60727697297	2	151	0.421500672994	0.649761186063	right	visual	right	tactile	target	voice	230.270094646	FALSE	FALSE	FALSE	FALSE	FALSE	0	FALSE	FALSE	TRUE
e19	2015	08	27	18	02	m	21	r	8.60727697297	2	152	2.22967432998	0.784792416413	right	tactile	right	tactile	catch	voice	NA	TRUE	FALSE	FALSE	FALSE	TRUE	0	FALSE	TRUE	FALSE
e19	2015	08	27	18	02	m	21	r	8.60727697297	2	153	0.628573755035	1.32775202086	left	tactile	right	tactile	target	voice	282.137471775	FALSE	FALSE	FALSE	FALSE	TRUE	0	FALSE	TRUE	TRUE
e19	2015	08	27	18	02	m	21	r	8.60727697297	2	154	0.407464240969	1.34108465286	left	tactile	left	tactile	target	voice	168.460458808	FALSE	FALSE	FALSE	FALSE	FALSE	0	FALSE	FALSE	TRUE
e19	2015	08	27	18	02	m	21	r	8.60727697297	2	155	0.407976412971	1.1927205072	right	tactile	left	tactile	target	voice	287.273879454	FALSE	FALSE	FALSE	FALSE	FALSE	0	FALSE	FALSE	TRUE
e19	2015	08	27	18	02	m	21	r	8.60727697297	2	156	0.429774908	1.08248381757	left	visual	right	tactile	target	voice	285.66370008	FALSE	FALSE	FALSE	FALSE	FALSE	0	FALSE	FALSE	TRUE
e19	2015	08	27	18	02	m	21	r	8.60727697297	2	157	0.405068370048	1.45224998303	left	visual	right	tactile	target	voice	249.918381625	FALSE	FALSE	FALSE	FALSE	TRUE	0	FALSE	FALSE	TRUE
e19	2015	08	27	18	02	m	21	r	8.60727697297	2	158	0.406447934976	0.610505049622	right	visual	left	visual	target	voice	327.71636406	FALSE	FALSE	FALSE	FALSE	TRUE	0	FALSE	TRUE	TRUE
e19	2015	08	27	18	02	m	21	r	8.60727697297	2	159	0.40106587304	1.07873209574	right	visual	right	visual	target	voice	270.246640895	FALSE	FALSE	FALSE	FALSE	FALSE	0	FALSE	FALSE	TRUE
e19	2015	08	27	18	02	m	21	r	8.60727697297	2	160	0.402366138005	1.44365506548	left	tactile	left	visual	target	voice	NA	TRUE	FALSE	FALSE	FALSE	FALSE	0	FALSE	FALSE	FALSE
e19	2015	08	27	18	02	m	21	r	37.379865164	3	1	7.70414933801	1.38039973819	left	tactile	left	tactile	target	voice	NA	TRUE	FALSE	FALSE	FALSE	FALSE	0	FALSE	FALSE	FALSE
e19	2015	08	27	18	02	m	21	r	37.379865164	3	2	0.710142766999	0.863829194355	left	visual	right	visual	target	voice	249.109758355	FALSE	FALSE	FALSE	FALSE	FALSE	0	FALSE	FALSE	TRUE
e19	2015	08	27	18	02	m	21	r	37.379865164	3	3	0.471173041034	0.562775963275	left	tactile	right	visual	target	voice	187.716363405	FALSE	FALSE	FALSE	FALSE	FALSE	0	FALSE	FALSE	TRUE
e19	2015	08	27	18	02	m	21	r	37.379865164	3	4	0.442373514001	0.5019371162	left	visual	right	visual	target	voice	232.770372473	FALSE	FALSE	FALSE	FALSE	FALSE	0	FALSE	FALSE	TRUE
e19	2015	08	27	18	02	m	21	r	37.379865164	3	5	0.398512236017	0.897504123211	left	visual	left	tactile	target	voice	NA	TRUE	FALSE	FALSE	FALSE	FALSE	0	FALSE	FALSE	FALSE
e19	2015	08	27	18	02	m	21	r	37.379865164	3	6	0.393766727007	1.3839810574	left	tactile	left	visual	target	voice	146.15080331	FALSE	FALSE	FALSE	FALSE	FALSE	0	FALSE	FALSE	TRUE
e19	2015	08	27	18	02	m	21	r	37.379865164	3	7	0.434300944034	0.891117947521	left	visual	right	visual	target	voice	344.321091135	FALSE	FALSE	FALSE	FALSE	FALSE	0	FALSE	FALSE	TRUE
e19	2015	08	27	18	02	m	21	r	37.379865164	3	8	0.402506882034	1.17097689478	left	tactile	left	visual	target	voice	143.252500857	FALSE	FALSE	FALSE	FALSE	FALSE	0	FALSE	FALSE	TRUE
e19	2015	08	27	18	02	m	21	r	37.379865164	3	9	2.72063858598	0.748396731423	left	visual	right	tactile	catch	voice	122.570450243	FALSE	FALSE	FALSE	FALSE	FALSE	0	FALSE	FALSE	TRUE
e19	2015	08	27	18	02	m	21	r	37.379865164	3	10	0.663436110015	0.765570012774	left	visual	left	tactile	target	voice	142.813515908	FALSE	FALSE	FALSE	FALSE	FALSE	0	FALSE	FALSE	TRUE
e19	2015	08	27	18	02	m	21	r	37.379865164	3	11	6.434714742	1.27353337721	left	visual	right	visual	target	voice	235.917184444	FALSE	FALSE	FALSE	FALSE	FALSE	0	FALSE	FALSE	TRUE
e19	2015	08	27	18	02	m	21	r	37.379865164	3	12	0.464751462045	0.669183059086	right	tactile	left	visual	catch	NA	NA	FALSE	FALSE	FALSE	FALSE	FALSE	0	FALSE	FALSE	TRUE
e19	2015	08	27	18	02	m	21	r	37.379865164	3	13	0.799182515999	1.17300485999	left	visual	left	visual	target	voice	113.407473662	FALSE	FALSE	FALSE	FALSE	TRUE	0	FALSE	FALSE	TRUE
e19	2015	08	27	18	02	m	21	r	37.379865164	3	14	0.408155123994	1.48442013222	left	tactile	right	tactile	target	voice	168.659689429	FALSE	FALSE	FALSE	FALSE	FALSE	0	FALSE	FALSE	TRUE
e19	2015	08	27	18	02	m	21	r	37.379865164	3	15	0.411419157987	1.33390238312	left	visual	left	visual	target	voice	390.369876521	FALSE	FALSE	FALSE	FALSE	FALSE	0	FALSE	FALSE	TRUE
e19	2015	08	27	18	02	m	21	r	37.379865164	3	16	0.402911130979	1.45248602739	right	tactile	right	visual	catch	voice	189.914707269	FALSE	FALSE	FALSE	FALSE	FALSE	0	FALSE	FALSE	TRUE
e19	2015	08	27	18	02	m	21	r	37.379865164	3	17	0.688431544986	0.954376469399	right	visual	right	visual	target	voice	603.112748242	FALSE	FALSE	FALSE	FALSE	FALSE	0	FALSE	FALSE	TRUE
e19	2015	08	27	18	02	m	21	r	37.379865164	3	18	0.401388423983	0.882556968748	right	visual	left	visual	target	voice	326.731194858	FALSE	FALSE	FALSE	FALSE	FALSE	0	FALSE	FALSE	TRUE
e19	2015	08	27	18	02	m	21	r	37.379865164	3	19	7.36336420296	1.018471251	right	tactile	left	visual	target	voice	109.715537634	FALSE	FALSE	FALSE	FALSE	FALSE	0	FALSE	FALSE	TRUE
e19	2015	08	27	18	02	m	21	r	37.379865164	3	20	0.59365853999	1.43413411056	left	tactile	left	tactile	target	voice	42.4483230454	FALSE	FALSE	FALSE	FALSE	FALSE	0	FALSE	FALSE	TRUE
e19	2015	08	27	18	02	m	21	r	37.379865164	3	21	0.442831739027	1.02188110634	right	tactile	left	tactile	target	voice	279.118187318	FALSE	FALSE	FALSE	FALSE	FALSE	0	FALSE	FALSE	TRUE
e19	2015	08	27	18	02	m	21	r	37.379865164	3	22	0.411489057005	1.13524930685	left	visual	left	tactile	target	voice	192.569433828	FALSE	FALSE	FALSE	FALSE	FALSE	0	FALSE	FALSE	TRUE
e19	2015	08	27	18	02	m	21	r	37.379865164	3	23	0.39878051501	0.690835345025	left	tactile	right	visual	target	voice	329.686406651	FALSE	FALSE	FALSE	FALSE	FALSE	0	FALSE	FALSE	TRUE
e19	2015	08	27	18	02	m	21	r	37.379865164	3	24	7.61904362403	1.27681959908	right	tactile	left	tactile	target	voice	213.25066057	FALSE	FALSE	FALSE	FALSE	FALSE	0	FALSE	FALSE	TRUE
e19	2015	08	27	18	02	m	21	r	37.379865164	3	25	2.69833775796	0.99132159386	left	visual	left	visual	target	voice	134.121615789	FALSE	FALSE	FALSE	FALSE	FALSE	0	FALSE	FALSE	TRUE
e19	2015	08	27	18	02	m	21	r	37.379865164	3	26	0.401768606971	0.5535781695	right	visual	left	tactile	target	voice	303.881682165	FALSE	FALSE	FALSE	FALSE	FALSE	0	FALSE	FALSE	TRUE
e19	2015	08	27	18	02	m	21	r	37.379865164	3	27	0.498649236979	1.44751428666	left	tactile	left	visual	target	voice	NA	TRUE	FALSE	FALSE	FALSE	FALSE	0	FALSE	FALSE	FALSE
e19	2015	08	27	18	02	m	21	r	37.379865164	3	28	0.495058131986	1.2257327725	left	visual	left	visual	target	voice	612.826355151	FALSE	FALSE	FALSE	FALSE	FALSE	0	FALSE	FALSE	TRUE
e19	2015	08	27	18	02	m	21	r	37.379865164	3	29	0.400676627993	1.19596864052	right	visual	right	visual	target	voice	334.143424174	FALSE	FALSE	FALSE	FALSE	TRUE	0	FALSE	FALSE	TRUE
e19	2015	08	27	18	02	m	21	r	37.379865164	3	30	0.408521716017	0.825005591066	right	visual	left	tactile	target	voice	245.827110542	FALSE	FALSE	FALSE	FALSE	FALSE	0	FALSE	FALSE	TRUE
e19	2015	08	27	18	02	m	21	r	37.379865164	3	31	0.405234194011	1.18999980865	right	tactile	left	visual	target	voice	139.372862002	FALSE	FALSE	FALSE	FALSE	FALSE	0	FALSE	FALSE	TRUE
e19	2015	08	27	18	02	m	21	r	37.379865164	3	32	0.409297490958	0.906977734983	right	tactile	right	visual	target	voice	52.219555655	FALSE	FALSE	FALSE	FALSE	FALSE	0	FALSE	FALSE	TRUE
e19	2015	08	27	18	02	m	21	r	37.379865164	3	33	0.40733918699	0.609197939555	right	visual	left	tactile	target	voice	578.385416069	FALSE	FALSE	FALSE	FALSE	FALSE	0	FALSE	FALSE	TRUE
e19	2015	08	27	18	02	m	21	r	37.379865164	3	34	0.405259607011	1.23284242285	right	visual	left	tactile	catch	voice	185.073985835	FALSE	FALSE	FALSE	FALSE	TRUE	0	FALSE	TRUE	TRUE
e19	2015	08	27	18	02	m	21	r	37.379865164	3	35	0.404329138983	1.42528991192	right	tactile	left	visual	target	voice	228.323709744	FALSE	FALSE	FALSE	FALSE	FALSE	0	FALSE	FALSE	TRUE
e19	2015	08	27	18	02	m	21	r	37.379865164	3	36	0.405868857983	0.894547726013	left	tactile	left	visual	target	voice	295.416409615	FALSE	FALSE	FALSE	FALSE	FALSE	0	FALSE	FALSE	TRUE
e19	2015	08	27	18	02	m	21	r	37.379865164	3	37	1.82037200499	0.647104121473	right	tactile	left	visual	target	voice	59.833799256	FALSE	FALSE	FALSE	FALSE	FALSE	0	FALSE	FALSE	TRUE
e19	2015	08	27	18	02	m	21	r	37.379865164	3	38	0.436481821002	0.896751193462	right	visual	right	tactile	target	voice	226.101460226	FALSE	FALSE	FALSE	FALSE	FALSE	0	FALSE	FALSE	TRUE
e19	2015	08	27	18	02	m	21	r	37.379865164	3	39	0.397011591005	0.550315593555	left	visual	right	tactile	target	voice	335.343199142	FALSE	FALSE	FALSE	FALSE	FALSE	0	FALSE	FALSE	TRUE
e19	2015	08	27	18	02	m	21	r	37.379865164	3	40	0.406556630041	1.07737580942	left	tactile	left	visual	target	voice	182.607310242	FALSE	FALSE	FALSE	FALSE	FALSE	0	FALSE	FALSE	TRUE
e19	2015	08	27	18	02	m	21	r	3.082487254	3	41	1.00324667303	0.995506064283	right	tactile	right	tactile	target	voice	NA	TRUE	FALSE	FALSE	FALSE	FALSE	0	FALSE	FALSE	FALSE
e19	2015	08	27	18	02	m	21	r	3.082487254	3	42	0.45076856704	0.566636920745	left	visual	right	visual	target	voice	310.673724976	FALSE	FALSE	FALSE	FALSE	TRUE	0	FALSE	TRUE	TRUE
e19	2015	08	27	18	02	m	21	r	3.082487254	3	43	0.455440761987	1.30071278706	right	visual	right	tactile	target	voice	232.82655963	FALSE	FALSE	FALSE	FALSE	FALSE	0	FALSE	FALSE	TRUE
e19	2015	08	27	18	02	m	21	r	3.082487254	3	44	0.40264200198	0.846013825368	right	visual	left	visual	target	voice	166.014735296	FALSE	FALSE	FALSE	FALSE	FALSE	0	FALSE	FALSE	TRUE
e19	2015	08	27	18	02	m	21	r	3.082487254	3	45	0.409915409982	0.975959254188	left	visual	right	visual	catch	voice	43.0857754545	FALSE	FALSE	FALSE	FALSE	FALSE	0	FALSE	FALSE	TRUE
e19	2015	08	27	18	02	m	21	r	3.082487254	3	46	0.449018910003	0.535670035282	left	tactile	left	visual	target	NA	NA	FALSE	FALSE	FALSE	FALSE	FALSE	0	FALSE	FALSE	TRUE
e19	2015	08	27	18	02	m	21	r	3.082487254	3	47	0.570672609028	1.49755702555	right	tactile	right	visual	target	voice	277.622010093	FALSE	FALSE	FALSE	FALSE	FALSE	0	FALSE	FALSE	TRUE
e19	2015	08	27	18	02	m	21	r	3.082487254	3	48	0.384194125014	1.00714105884	right	tactile	right	tactile	target	voice	223.112717795	FALSE	FALSE	FALSE	FALSE	FALSE	0	FALSE	FALSE	TRUE
e19	2015	08	27	18	02	m	21	r	3.082487254	3	49	0.406621372036	0.752630964401	left	tactile	right	visual	catch	NA	NA	FALSE	FALSE	FALSE	FALSE	FALSE	0	FALSE	FALSE	TRUE
e19	2015	08	27	18	02	m	21	r	3.082487254	3	50	1.04382672301	0.709473772462	left	visual	right	tactile	target	voice	178.728217259	FALSE	FALSE	FALSE	FALSE	FALSE	0	FALSE	FALSE	TRUE
e19	2015	08	27	18	02	m	21	r	3.082487254	3	51	0.410897679976	1.16195035569	left	tactile	left	tactile	target	voice	193.106707011	FALSE	FALSE	FALSE	FALSE	FALSE	0	FALSE	FALSE	TRUE
e19	2015	08	27	18	02	m	21	r	3.082487254	3	52	0.407032497053	0.711741335305	right	visual	right	tactile	target	voice	246.479837399	FALSE	FALSE	FALSE	FALSE	FALSE	0	FALSE	FALSE	TRUE
e19	2015	08	27	18	02	m	21	r	3.082487254	3	53	1.72183964198	1.46563893918	left	tactile	right	visual	target	voice	178.449721483	FALSE	FALSE	FALSE	FALSE	FALSE	0	FALSE	FALSE	TRUE
e19	2015	08	27	18	02	m	21	r	3.082487254	3	54	0.392500456946	1.2056279787	right	visual	left	tactile	target	voice	154.435827979	FALSE	FALSE	FALSE	FALSE	FALSE	0	FALSE	FALSE	TRUE
e19	2015	08	27	18	02	m	21	r	3.082487254	3	55	1.66859942197	1.25822559044	right	tactile	right	visual	target	voice	15.8861472155	FALSE	FALSE	FALSE	FALSE	FALSE	0	FALSE	FALSE	TRUE
e19	2015	08	27	18	02	m	21	r	3.082487254	3	56	0.392463314987	0.519688739799	right	visual	left	tactile	target	voice	274.65665288	FALSE	FALSE	FALSE	FALSE	FALSE	0	FALSE	FALSE	TRUE
e19	2015	08	27	18	02	m	21	r	3.082487254	3	57	0.488359651004	1.09041476797	left	visual	right	visual	target	voice	NA	TRUE	FALSE	FALSE	FALSE	FALSE	0	FALSE	FALSE	FALSE
e19	2015	08	27	18	02	m	21	r	3.082487254	3	58	0.727604160027	1.37282187841	left	visual	left	tactile	target	voice	NA	TRUE	FALSE	FALSE	FALSE	FALSE	0	FALSE	FALSE	FALSE
e19	2015	08	27	18	02	m	21	r	3.082487254	3	59	1.511730781	1.0992717387	left	visual	right	tactile	target	voice	302.480596991	FALSE	FALSE	FALSE	FALSE	TRUE	0	FALSE	TRUE	TRUE
e19	2015	08	27	18	02	m	21	r	3.082487254	3	60	0.415384151973	1.26945896939	left	tactile	right	visual	target	voice	256.038561289	FALSE	FALSE	FALSE	FALSE	FALSE	0	FALSE	FALSE	TRUE
e19	2015	08	27	18	02	m	21	r	3.082487254	3	61	0.405114898982	0.727979910107	right	tactile	right	tactile	target	voice	347.126217559	FALSE	FALSE	FALSE	FALSE	FALSE	0	FALSE	FALSE	TRUE
e19	2015	08	27	18	02	m	21	r	3.082487254	3	62	0.431514274038	0.813939127654	left	visual	right	visual	target	voice	384.598533972	FALSE	FALSE	FALSE	FALSE	FALSE	0	FALSE	FALSE	TRUE
e19	2015	08	27	18	02	m	21	r	3.082487254	3	63	0.396308119991	1.36075905782	right	tactile	left	tactile	target	voice	370.356449857	FALSE	FALSE	FALSE	FALSE	FALSE	0	FALSE	FALSE	TRUE
e19	2015	08	27	18	02	m	21	r	3.082487254	3	64	0.482371619961	1.4993759227	right	visual	right	visual	target	voice	526.562236948	FALSE	FALSE	FALSE	FALSE	FALSE	0	FALSE	FALSE	TRUE
e19	2015	08	27	18	02	m	21	r	3.082487254	3	65	0.401660069998	0.683614672701	left	tactile	right	visual	target	voice	362.966966	FALSE	FALSE	FALSE	FALSE	FALSE	0	FALSE	FALSE	TRUE
e19	2015	08	27	18	02	m	21	r	3.082487254	3	66	0.458079082018	0.858476061969	right	visual	left	visual	catch	NA	NA	FALSE	FALSE	FALSE	FALSE	FALSE	0	FALSE	FALSE	TRUE
e19	2015	08	27	18	02	m	21	r	3.082487254	3	67	0.407170271035	0.598703514531	right	tactile	right	visual	target	voice	442.161465122	FALSE	FALSE	FALSE	FALSE	FALSE	0	FALSE	FALSE	TRUE
e19	2015	08	27	18	02	m	21	r	3.082487254	3	68	0.403204212023	1.3725826001	right	tactile	left	visual	target	voice	NA	TRUE	FALSE	FALSE	FALSE	FALSE	0	FALSE	FALSE	FALSE
e19	2015	08	27	18	02	m	21	r	3.082487254	3	69	1.14829977701	0.735527418096	left	tactile	right	tactile	target	voice	NA	TRUE	FALSE	FALSE	FALSE	FALSE	0	FALSE	FALSE	FALSE
e19	2015	08	27	18	02	m	21	r	3.082487254	3	70	3.034292878	1.30018533418	left	visual	left	tactile	target	voice	357.302521472	FALSE	FALSE	FALSE	FALSE	FALSE	0	FALSE	FALSE	TRUE
e19	2015	08	27	18	02	m	21	r	3.082487254	3	71	0.582943719986	1.36335536356	left	visual	left	visual	target	voice	NA	TRUE	FALSE	FALSE	FALSE	TRUE	0	FALSE	FALSE	FALSE
e19	2015	08	27	18	02	m	21	r	3.082487254	3	72	2.23315640498	1.40376348418	left	tactile	right	tactile	target	voice	NA	TRUE	FALSE	FALSE	FALSE	TRUE	0	FALSE	TRUE	FALSE
e19	2015	08	27	18	02	m	21	r	3.082487254	3	73	1.15230628598	1.32248550494	right	visual	left	visual	target	voice	NA	TRUE	FALSE	FALSE	FALSE	FALSE	0	FALSE	FALSE	FALSE
e19	2015	08	27	18	02	m	21	r	3.082487254	3	74	2.18290715001	1.37380747573	right	visual	right	visual	target	voice	476.347728923	FALSE	FALSE	FALSE	FALSE	FALSE	0	FALSE	FALSE	TRUE
e19	2015	08	27	18	02	m	21	r	3.082487254	3	75	0.607530816982	1.3772635814	left	visual	right	tactile	target	voice	295.82806828	FALSE	FALSE	FALSE	FALSE	FALSE	0	FALSE	FALSE	TRUE
e19	2015	08	27	18	02	m	21	r	3.082487254	3	76	0.398886024021	1.01564368148	left	tactile	left	visual	catch	NA	NA	FALSE	FALSE	FALSE	TRUE	FALSE	0	FALSE	FALSE	TRUE
e19	2015	08	27	18	02	m	21	r	3.082487254	3	77	10.113353971	1.08515133853	left	tactile	right	tactile	target	voice	308.020689117	FALSE	FALSE	FALSE	FALSE	FALSE	0	FALSE	FALSE	TRUE
e19	2015	08	27	18	02	m	21	r	3.082487254	3	78	0.40090547502	1.49558819271	right	tactile	left	tactile	target	voice	257.951145933	FALSE	FALSE	FALSE	FALSE	FALSE	0	FALSE	FALSE	TRUE
e19	2015	08	27	18	02	m	21	r	3.082487254	3	79	0.396809683996	0.618588181057	right	tactile	left	tactile	target	voice	280.92261561	FALSE	FALSE	FALSE	FALSE	FALSE	0	FALSE	FALSE	TRUE
e19	2015	08	27	18	02	m	21	r	3.082487254	3	80	0.403608184017	0.789922117106	left	tactile	left	tactile	target	voice	117.891541566	FALSE	FALSE	FALSE	FALSE	FALSE	0	FALSE	FALSE	TRUE
e19	2015	08	27	18	02	m	21	r	3.93486798898	3	81	1.30611584504	1.40296874824	right	tactile	left	tactile	target	voice	240.498427418	FALSE	FALSE	FALSE	FALSE	FALSE	0	FALSE	FALSE	TRUE
e19	2015	08	27	18	02	m	21	r	3.93486798898	3	82	0.405277810991	1.48521400594	right	visual	left	visual	target	voice	468.840971706	FALSE	FALSE	FALSE	FALSE	FALSE	0	FALSE	FALSE	TRUE
e19	2015	08	27	18	02	m	21	r	3.93486798898	3	83	0.408086303971	0.800780943128	left	tactile	left	tactile	target	voice	274.279582489	FALSE	FALSE	FALSE	FALSE	FALSE	0	FALSE	FALSE	TRUE
e19	2015	08	27	18	02	m	21	r	3.93486798898	3	84	0.399781219952	0.734690436204	right	visual	left	visual	target	voice	220.493321482	FALSE	FALSE	FALSE	FALSE	FALSE	0	FALSE	FALSE	TRUE
e19	2015	08	27	18	02	m	21	r	3.93486798898	3	85	0.413286386	0.822528431171	left	tactile	right	visual	target	voice	40.5532604782	FALSE	FALSE	FALSE	FALSE	FALSE	0	FALSE	FALSE	TRUE
e19	2015	08	27	18	02	m	21	r	3.93486798898	3	86	1.75841157004	0.603704357597	right	tactile	right	tactile	target	voice	269.433201116	FALSE	FALSE	FALSE	FALSE	FALSE	0	FALSE	FALSE	TRUE
e19	2015	08	27	18	02	m	21	r	3.93486798898	3	87	4.39254385204	0.835486160944	right	tactile	left	visual	target	voice	292.81584674	FALSE	FALSE	FALSE	FALSE	FALSE	0	FALSE	FALSE	TRUE
e19	2015	08	27	18	02	m	21	r	3.93486798898	3	88	0.387310831982	1.10104634799	right	visual	left	visual	target	voice	119.902182661	FALSE	FALSE	FALSE	FALSE	FALSE	0	FALSE	FALSE	TRUE
e19	2015	08	27	18	02	m	21	r	3.93486798898	3	89	0.409506629047	1.33799558966	right	visual	right	tactile	catch	NA	NA	FALSE	FALSE	FALSE	FALSE	TRUE	0	FALSE	TRUE	TRUE
e19	2015	08	27	18	02	m	21	r	3.93486798898	3	90	0.751238192955	1.39213852162	right	visual	left	visual	target	voice	240.77029404	FALSE	FALSE	FALSE	TRUE	FALSE	0	TRUE	FALSE	TRUE
e19	2015	08	27	18	02	m	21	r	3.93486798898	3	91	5.660314904	1.33263825931	right	visual	right	tactile	target	voice	181.514660362	FALSE	FALSE	FALSE	FALSE	FALSE	0	FALSE	FALSE	TRUE
e19	2015	08	27	18	02	m	21	r	3.93486798898	3	92	0.400429992995	0.733188664495	left	visual	right	tactile	target	voice	204.11329018	FALSE	FALSE	FALSE	FALSE	FALSE	0	FALSE	FALSE	TRUE
e19	2015	08	27	18	02	m	21	r	3.93486798898	3	93	9.30334208999	0.729348192701	left	tactile	right	visual	target	voice	268.289526983	FALSE	FALSE	FALSE	TRUE	FALSE	0	TRUE	FALSE	TRUE
e19	2015	08	27	18	02	m	21	r	3.93486798898	3	94	20.365796718	1.36350883772	right	visual	right	visual	target	voice	NA	TRUE	FALSE	FALSE	FALSE	FALSE	0	FALSE	FALSE	FALSE
e19	2015	08	27	18	02	m	21	r	3.93486798898	3	95	1.15364780399	0.727952317249	right	visual	right	visual	target	voice	316.598914389	FALSE	FALSE	FALSE	FALSE	FALSE	0	FALSE	FALSE	TRUE
e19	2015	08	27	18	02	m	21	r	3.93486798898	3	96	0.429802789004	0.667307045788	right	visual	left	tactile	target	voice	245.258036884	FALSE	FALSE	FALSE	FALSE	FALSE	0	FALSE	FALSE	TRUE
e19	2015	08	27	18	02	m	21	r	3.93486798898	3	97	0.395338998991	0.596730765736	left	visual	left	visual	catch	voice	149.861490936	FALSE	FALSE	FALSE	FALSE	FALSE	0	FALSE	FALSE	TRUE
e19	2015	08	27	18	02	m	21	r	3.93486798898	3	98	0.527994398028	1.24641218826	right	tactile	left	tactile	target	voice	NA	TRUE	FALSE	FALSE	FALSE	FALSE	0	FALSE	FALSE	FALSE
e19	2015	08	27	18	02	m	21	r	3.93486798898	3	99	0.411213225045	0.877436138871	left	visual	left	tactile	target	voice	349.652090808	FALSE	FALSE	FALSE	FALSE	FALSE	0	FALSE	FALSE	TRUE
e19	2015	08	27	18	02	m	21	r	3.93486798898	3	100	2.01397658401	0.974414429337	right	visual	right	tactile	target	voice	214.049439353	FALSE	FALSE	FALSE	FALSE	FALSE	0	FALSE	FALSE	TRUE
e19	2015	08	27	18	02	m	21	r	3.93486798898	3	101	0.410726173955	0.631185724248	left	visual	left	visual	target	voice	395.185640431	FALSE	FALSE	FALSE	FALSE	FALSE	0	FALSE	FALSE	TRUE
e19	2015	08	27	18	02	m	21	r	3.93486798898	3	102	0.406686739007	1.48512846609	left	tactile	left	tactile	target	voice	95.9053235711	FALSE	FALSE	FALSE	FALSE	FALSE	0	FALSE	FALSE	TRUE
e19	2015	08	27	18	02	m	21	r	3.93486798898	3	103	0.398956086021	1.46513678214	right	tactile	left	tactile	target	voice	156.985072535	FALSE	FALSE	FALSE	FALSE	FALSE	0	FALSE	FALSE	TRUE
e19	2015	08	27	18	02	m	21	r	3.93486798898	3	104	0.488634672016	0.861510150204	right	tactile	left	visual	target	voice	345.392122457	FALSE	FALSE	FALSE	FALSE	FALSE	0	FALSE	FALSE	TRUE
e19	2015	08	27	18	02	m	21	r	3.93486798898	3	105	0.577447046991	0.525521271684	left	tactile	right	visual	target	voice	913.771744992	FALSE	FALSE	FALSE	FALSE	FALSE	0	FALSE	FALSE	TRUE
e19	2015	08	27	18	02	m	21	r	3.93486798898	3	106	0.468278919987	1.15718546975	right	visual	right	visual	catch	voice	450.329241925	FALSE	FALSE	FALSE	FALSE	FALSE	0	FALSE	FALSE	TRUE
e19	2015	08	27	18	02	m	21	r	3.93486798898	3	107	0.587889242976	1.3841180844	left	visual	right	visual	target	voice	NA	TRUE	FALSE	FALSE	FALSE	TRUE	0	FALSE	FALSE	FALSE
e19	2015	08	27	18	02	m	21	r	3.93486798898	3	108	0.935936550028	0.981163635539	right	visual	right	tactile	target	voice	209.859487135	FALSE	FALSE	FALSE	FALSE	FALSE	0	FALSE	FALSE	TRUE
e19	2015	08	27	18	02	m	21	r	3.93486798898	3	109	2.52838509	1.23239405137	right	visual	left	visual	target	voice	216.452972265	FALSE	FALSE	FALSE	FALSE	FALSE	0	FALSE	FALSE	TRUE
e19	2015	08	27	18	02	m	21	r	3.93486798898	3	110	0.471685337019	0.625362658287	left	tactile	right	tactile	catch	voice	NA	TRUE	FALSE	FALSE	FALSE	FALSE	0	FALSE	FALSE	FALSE
e19	2015	08	27	18	02	m	21	r	3.93486798898	3	111	1.36200962099	1.17185815415	left	tactile	left	tactile	target	voice	77.2481185268	FALSE	FALSE	FALSE	FALSE	FALSE	0	FALSE	FALSE	TRUE
e19	2015	08	27	18	02	m	21	r	3.93486798898	3	112	0.63300402998	0.950236333996	right	tactile	right	tactile	target	voice	101.84151365	FALSE	FALSE	FALSE	FALSE	FALSE	0	FALSE	FALSE	TRUE
e19	2015	08	27	18	02	m	21	r	3.93486798898	3	113	0.600234973012	0.562980094517	right	visual	right	tactile	target	voice	NA	TRUE	FALSE	FALSE	FALSE	FALSE	0	FALSE	FALSE	FALSE
e19	2015	08	27	18	02	m	21	r	3.93486798898	3	114	2.289477457	0.909521350004	right	tactile	right	tactile	target	voice	6.54496165225	FALSE	FALSE	FALSE	FALSE	FALSE	0	FALSE	FALSE	TRUE
e19	2015	08	27	18	02	m	21	r	3.93486798898	3	115	0.659227075987	0.696350671148	right	tactile	right	tactile	target	voice	185.471393459	FALSE	FALSE	FALSE	FALSE	FALSE	0	FALSE	FALSE	TRUE
e19	2015	08	27	18	02	m	21	r	3.93486798898	3	116	2.969171273	0.734101140894	right	visual	right	visual	target	voice	281.073736784	FALSE	FALSE	FALSE	FALSE	FALSE	0	FALSE	FALSE	TRUE
e19	2015	08	27	18	02	m	21	r	3.93486798898	3	117	6.98791562399	1.34203135837	left	visual	left	visual	target	voice	NA	TRUE	FALSE	FALSE	FALSE	FALSE	0	FALSE	FALSE	FALSE
e19	2015	08	27	18	02	m	21	r	3.93486798898	3	118	0.907130527019	0.902689633055	left	tactile	right	tactile	target	voice	175.783849612	FALSE	FALSE	FALSE	FALSE	FALSE	0	FALSE	FALSE	TRUE
e19	2015	08	27	18	02	m	21	r	3.93486798898	3	119	0.689873923024	1.16642265246	right	visual	left	tactile	target	voice	221.253374184	FALSE	FALSE	FALSE	FALSE	FALSE	0	FALSE	FALSE	TRUE
e19	2015	08	27	18	02	m	21	r	3.93486798898	3	120	0.455016980006	1.46757649293	left	visual	left	tactile	catch	voice	90.6352317543	FALSE	FALSE	FALSE	FALSE	FALSE	0	FALSE	FALSE	TRUE
e19	2015	08	27	18	02	m	21	r	4.43098914099	3	121	0.88845848199	1.23215658796	right	visual	left	visual	target	voice	106.560200744	FALSE	FALSE	FALSE	FALSE	TRUE	0	FALSE	FALSE	TRUE
e19	2015	08	27	18	02	m	21	r	4.43098914099	3	122	0.406810275977	0.62683829754	right	tactile	left	visual	target	voice	192.64824217	FALSE	FALSE	FALSE	FALSE	FALSE	0	FALSE	FALSE	TRUE
e19	2015	08	27	18	02	m	21	r	4.43098914099	3	123	6.72304404102	1.10595680784	left	visual	right	tactile	target	voice	245.247093844	FALSE	FALSE	FALSE	FALSE	FALSE	0	FALSE	FALSE	TRUE
e19	2015	08	27	18	02	m	21	r	4.43098914099	3	124	0.526395432011	1.48833622962	left	tactile	right	tactile	target	voice	158.331839019	FALSE	FALSE	FALSE	FALSE	FALSE	0	FALSE	FALSE	TRUE
e19	2015	08	27	18	02	m	21	r	4.43098914099	3	125	3.41816631198	0.903645098994	left	visual	left	tactile	target	voice	43.3576107025	FALSE	FALSE	FALSE	FALSE	FALSE	0	FALSE	FALSE	TRUE
e19	2015	08	27	18	02	m	21	r	4.43098914099	3	126	0.665673297015	0.995388233176	right	tactile	left	tactile	catch	voice	NA	TRUE	FALSE	FALSE	FALSE	TRUE	0	FALSE	FALSE	FALSE
e19	2015	08	27	18	02	m	21	r	4.43098914099	3	127	0.93734639301	0.631665970191	left	visual	left	visual	target	voice	566.972196451	FALSE	FALSE	FALSE	FALSE	FALSE	0	FALSE	FALSE	TRUE
e19	2015	08	27	18	02	m	21	r	4.43098914099	3	128	4.86541791999	0.971764630475	right	visual	right	tactile	target	voice	NA	TRUE	FALSE	FALSE	FALSE	FALSE	0	FALSE	FALSE	FALSE
e19	2015	08	27	18	02	m	21	r	4.43098914099	3	129	0.947794904001	0.578850439885	right	visual	left	tactile	target	voice	276.923419849	FALSE	FALSE	FALSE	FALSE	FALSE	0	FALSE	FALSE	TRUE
e19	2015	08	27	18	02	m	21	r	4.43098914099	3	130	3.48583742796	1.18159586228	right	tactile	right	tactile	target	voice	12.7812623978	FALSE	FALSE	FALSE	FALSE	TRUE	0	FALSE	TRUE	TRUE
e19	2015	08	27	18	02	m	21	r	4.43098914099	3	131	11.785795665	1.2415468471	left	visual	left	visual	target	voice	NA	TRUE	FALSE	FALSE	FALSE	FALSE	0	FALSE	FALSE	FALSE
e19	2015	08	27	18	02	m	21	r	4.43098914099	3	132	1.46303564101	0.642713044528	left	visual	left	tactile	target	voice	341.050329094	FALSE	FALSE	FALSE	FALSE	FALSE	0	FALSE	FALSE	TRUE
e19	2015	08	27	18	02	m	21	r	4.43098914099	3	133	0.690526651975	0.583567138003	left	tactile	left	tactile	catch	voice	NA	TRUE	FALSE	FALSE	FALSE	TRUE	0	FALSE	FALSE	FALSE
e19	2015	08	27	18	02	m	21	r	4.43098914099	3	134	1.40708653	0.711153676455	left	visual	right	tactile	target	voice	149.065082194	FALSE	FALSE	FALSE	FALSE	FALSE	0	FALSE	FALSE	TRUE
e19	2015	08	27	18	02	m	21	r	4.43098914099	3	135	0.857292276982	0.585093654432	right	tactile	right	visual	target	voice	111.307983228	FALSE	FALSE	FALSE	FALSE	FALSE	0	FALSE	FALSE	TRUE
e19	2015	08	27	18	02	m	21	r	4.43098914099	3	136	7.31469215499	1.18028343454	right	visual	right	tactile	target	voice	112.947223126	FALSE	FALSE	FALSE	FALSE	FALSE	0	FALSE	FALSE	TRUE
e19	2015	08	27	18	02	m	21	r	4.43098914099	3	137	0.681843899016	1.36320992164	left	tactile	right	tactile	target	voice	86.998052022	FALSE	FALSE	FALSE	FALSE	FALSE	0	FALSE	FALSE	TRUE
e19	2015	08	27	18	02	m	21	r	4.43098914099	3	138	0.657039629004	1.12718513285	right	tactile	right	visual	target	voice	32.1823627455	FALSE	FALSE	FALSE	FALSE	TRUE	0	FALSE	FALSE	TRUE
e19	2015	08	27	18	02	m	21	r	4.43098914099	3	139	0.773135367956	1.08141389413	left	visual	right	visual	target	voice	253.549949557	FALSE	FALSE	FALSE	FALSE	FALSE	0	FALSE	FALSE	TRUE
e19	2015	08	27	18	02	m	21	r	4.43098914099	3	140	0.444655064959	1.26665999369	right	tactile	right	visual	target	voice	NA	TRUE	FALSE	FALSE	FALSE	FALSE	0	FALSE	FALSE	FALSE
e19	2015	08	27	18	02	m	21	r	4.43098914099	3	141	0.538569242053	0.533225121479	left	tactile	right	visual	target	NA	NA	FALSE	FALSE	FALSE	FALSE	FALSE	0	FALSE	FALSE	TRUE
e19	2015	08	27	18	02	m	21	r	4.43098914099	3	142	0.559407074004	0.715049251156	right	tactile	right	visual	target	voice	217.363548465	FALSE	FALSE	FALSE	FALSE	FALSE	0	FALSE	FALSE	TRUE
e19	2015	08	27	18	02	m	21	r	4.43098914099	3	143	0.616703148	0.541410398369	left	tactile	right	tactile	target	voice	174.494511273	FALSE	FALSE	FALSE	FALSE	FALSE	0	FALSE	FALSE	TRUE
e19	2015	08	27	18	02	m	21	r	4.43098914099	3	144	0.519536102016	1.38374642445	left	tactile	left	visual	target	voice	27.8421731782	FALSE	FALSE	FALSE	FALSE	FALSE	0	FALSE	FALSE	TRUE
e19	2015	08	27	18	02	m	21	r	4.43098914099	3	145	0.524774043995	0.928647365715	left	visual	right	tactile	target	voice	171.073671954	FALSE	FALSE	FALSE	FALSE	FALSE	0	FALSE	FALSE	TRUE
e19	2015	08	27	18	02	m	21	r	4.43098914099	3	146	0.585024023021	0.526710177854	left	tactile	left	tactile	target	voice	639.20696784	FALSE	FALSE	FALSE	FALSE	FALSE	0	FALSE	FALSE	TRUE
e19	2015	08	27	18	02	m	21	r	4.43098914099	3	147	0.534549703996	0.826304121193	right	tactile	left	tactile	target	voice	3.22689249879	FALSE	FALSE	FALSE	FALSE	TRUE	0	FALSE	FALSE	TRUE
e19	2015	08	27	18	02	m	21	r	4.43098914099	3	148	0.614791323023	1.02390365992	right	visual	left	tactile	target	voice	251.732403762	FALSE	FALSE	FALSE	FALSE	FALSE	0	FALSE	FALSE	TRUE
e19	2015	08	27	18	02	m	21	r	4.43098914099	3	149	0.620208933949	0.599833748341	right	visual	right	visual	target	voice	337.724563316	FALSE	FALSE	FALSE	FALSE	FALSE	0	FALSE	FALSE	TRUE
e19	2015	08	27	18	02	m	21	r	4.43098914099	3	150	0.479076964955	1.18542023942	right	tactile	right	tactile	target	voice	NA	TRUE	FALSE	FALSE	FALSE	FALSE	0	FALSE	FALSE	FALSE
e19	2015	08	27	18	02	m	21	r	4.43098914099	3	151	0.60271734203	0.979103801827	right	tactile	right	visual	target	voice	110.392994829	FALSE	FALSE	FALSE	FALSE	FALSE	0	FALSE	FALSE	TRUE
e19	2015	08	27	18	02	m	21	r	4.43098914099	3	152	0.627531364036	0.929956247639	left	tactile	left	visual	target	voice	60.7122910442	FALSE	FALSE	FALSE	TRUE	FALSE	0	TRUE	FALSE	TRUE
e19	2015	08	27	18	02	m	21	r	4.43098914099	3	153	4.61297650501	0.658254624425	right	visual	right	visual	target	voice	140.828151256	FALSE	FALSE	FALSE	FALSE	FALSE	0	FALSE	FALSE	TRUE
e19	2015	08	27	18	02	m	21	r	4.43098914099	3	154	0.469164134003	1.43829044521	left	tactile	left	visual	target	voice	8.34633648628	FALSE	FALSE	FALSE	FALSE	FALSE	0	FALSE	FALSE	TRUE
e19	2015	08	27	18	02	m	21	r	4.43098914099	3	155	0.620245414029	1.39853276655	right	tactile	left	visual	target	voice	93.5634450871	FALSE	FALSE	FALSE	FALSE	FALSE	0	FALSE	FALSE	TRUE
e19	2015	08	27	18	02	m	21	r	4.43098914099	3	156	0.569516133983	0.737420570909	left	tactile	left	tactile	target	voice	254.823761759	FALSE	FALSE	FALSE	FALSE	FALSE	0	FALSE	FALSE	TRUE
e19	2015	08	27	18	02	m	21	r	4.43098914099	3	157	0.486269906978	1.32092533515	left	tactile	right	tactile	target	voice	191.63166848	FALSE	FALSE	FALSE	FALSE	FALSE	0	FALSE	FALSE	TRUE
e19	2015	08	27	18	02	m	21	r	4.43098914099	3	158	0.41184589098	0.964711235519	left	visual	left	tactile	target	voice	87.9964911146	FALSE	FALSE	FALSE	FALSE	FALSE	0	FALSE	FALSE	TRUE
e19	2015	08	27	18	02	m	21	r	4.43098914099	3	159	6.688502123	1.20954309835	right	tactile	right	tactile	catch	NA	NA	FALSE	FALSE	FALSE	FALSE	FALSE	0	FALSE	FALSE	TRUE
e19	2015	08	27	18	02	m	21	r	4.43098914099	3	160	0.395279871009	0.663457070086	left	visual	right	tactile	target	voice	276.878587611	FALSE	FALSE	FALSE	FALSE	FALSE	0	FALSE	FALSE	TRUE
e19	2015	08	27	18	02	m	21	r	36.361578477	4	1	4.69519262301	1.1593123886	right	visual	left	tactile	target	voice	484.041780059	FALSE	FALSE	FALSE	FALSE	TRUE	0	FALSE	FALSE	TRUE
e19	2015	08	27	18	02	m	21	r	36.361578477	4	2	1.29055198398	1.4869641571	left	tactile	left	visual	catch	voice	239.062604611	FALSE	FALSE	FALSE	FALSE	FALSE	0	FALSE	FALSE	TRUE
e19	2015	08	27	18	02	m	21	r	36.361578477	4	3	0.776962712	1.34982977901	left	visual	left	tactile	target	voice	192.449975642	FALSE	FALSE	FALSE	FALSE	FALSE	0	FALSE	FALSE	TRUE
e19	2015	08	27	18	02	m	21	r	36.361578477	4	4	0.402947715018	0.550626223792	right	tactile	right	tactile	target	voice	177.18833487	FALSE	FALSE	FALSE	FALSE	FALSE	0	FALSE	FALSE	TRUE
e19	2015	08	27	18	02	m	21	r	36.361578477	4	5	0.433969503036	0.682530595142	right	tactile	right	visual	target	voice	259.608232533	FALSE	FALSE	FALSE	FALSE	FALSE	0	FALSE	FALSE	TRUE
e19	2015	08	27	18	02	m	21	r	36.361578477	4	6	0.456491952005	1.35504168679	right	visual	right	visual	target	voice	35.0066678948	FALSE	FALSE	FALSE	FALSE	FALSE	0	FALSE	FALSE	TRUE
e19	2015	08	27	18	02	m	21	r	36.361578477	4	7	0.436137980956	1.29626256136	left	visual	left	tactile	target	voice	154.046420357	FALSE	FALSE	FALSE	FALSE	FALSE	0	FALSE	FALSE	TRUE
e19	2015	08	27	18	02	m	21	r	36.361578477	4	8	0.633401084982	0.985409255361	left	tactile	right	visual	target	voice	86.7795692757	FALSE	FALSE	FALSE	FALSE	FALSE	0	FALSE	FALSE	TRUE
e19	2015	08	27	18	02	m	21	r	36.361578477	4	9	0.647656298999	0.615638013733	right	tactile	right	visual	target	voice	255.058247887	FALSE	FALSE	FALSE	FALSE	FALSE	0	FALSE	FALSE	TRUE
e19	2015	08	27	18	02	m	21	r	36.361578477	4	10	0.447860867018	0.771511961933	right	tactile	right	visual	target	voice	78.6869957228	FALSE	FALSE	FALSE	FALSE	FALSE	0	FALSE	FALSE	TRUE
e19	2015	08	27	18	02	m	21	r	36.361578477	4	11	0.420547556016	1.23785858643	right	tactile	right	visual	target	voice	7.03416828765	FALSE	FALSE	FALSE	FALSE	TRUE	0	FALSE	TRUE	TRUE
e19	2015	08	27	18	02	m	21	r	36.361578477	4	12	0.617986308003	1.31599393748	left	tactile	right	visual	target	voice	8.71160015231	FALSE	FALSE	FALSE	FALSE	FALSE	0	FALSE	FALSE	TRUE
e19	2015	08	27	18	02	m	21	r	36.361578477	4	13	0.628945129982	1.20492855737	right	visual	left	tactile	target	voice	164.57628028	FALSE	FALSE	FALSE	FALSE	FALSE	0	FALSE	FALSE	TRUE
e19	2015	08	27	18	02	m	21	r	36.361578477	4	14	0.603262917022	1.14588778114	left	tactile	right	tactile	target	voice	124.387776537	FALSE	FALSE	FALSE	FALSE	TRUE	0	FALSE	TRUE	TRUE
e19	2015	08	27	18	02	m	21	r	36.361578477	4	15	0.49561106303	1.2402719809	right	visual	right	visual	target	voice	170.507982781	FALSE	FALSE	FALSE	FALSE	FALSE	0	FALSE	FALSE	TRUE
e19	2015	08	27	18	02	m	21	r	36.361578477	4	16	0.472337442043	1.43091728116	left	tactile	left	tactile	target	voice	NA	TRUE	FALSE	FALSE	FALSE	FALSE	0	FALSE	FALSE	FALSE
e19	2015	08	27	18	02	m	21	r	36.361578477	4	17	0.455807209015	1.31508869285	left	tactile	left	tactile	target	voice	57.608223753	FALSE	FALSE	FALSE	FALSE	FALSE	0	FALSE	FALSE	TRUE
e19	2015	08	27	18	02	m	21	r	36.361578477	4	18	0.527261595009	0.853856790736	left	tactile	right	tactile	target	voice	185.770037875	FALSE	FALSE	FALSE	FALSE	FALSE	0	FALSE	FALSE	TRUE
e19	2015	08	27	18	02	m	21	r	36.361578477	4	19	0.498550000018	0.5384679996	left	tactile	left	tactile	target	voice	494.92366804	FALSE	FALSE	FALSE	FALSE	FALSE	0	FALSE	FALSE	TRUE
e19	2015	08	27	18	02	m	21	r	36.361578477	4	20	0.418436887034	0.716499798527	right	tactile	right	tactile	target	voice	78.4355291398	FALSE	FALSE	FALSE	FALSE	TRUE	0	FALSE	TRUE	TRUE
e19	2015	08	27	18	02	m	21	r	36.361578477	4	21	0.604262294015	1.38962544784	left	visual	right	visual	target	voice	336.251590808	FALSE	FALSE	FALSE	FALSE	FALSE	0	FALSE	FALSE	TRUE
e19	2015	08	27	18	02	m	21	r	36.361578477	4	22	0.439557604957	1.24196719055	left	visual	left	tactile	target	voice	254.134693183	FALSE	FALSE	FALSE	FALSE	FALSE	0	FALSE	FALSE	TRUE
e19	2015	08	27	18	02	m	21	r	36.361578477	4	23	0.491219185002	0.994060468901	left	visual	right	visual	target	voice	234.00659475	FALSE	FALSE	FALSE	FALSE	FALSE	0	FALSE	FALSE	TRUE
e19	2015	08	27	18	02	m	21	r	36.361578477	4	24	0.467604484002	0.961123720291	right	tactile	left	visual	target	voice	NA	TRUE	FALSE	FALSE	FALSE	FALSE	0	FALSE	FALSE	FALSE
e19	2015	08	27	18	02	m	21	r	36.361578477	4	25	0.999560034019	0.669314767882	right	tactile	left	visual	catch	voice	161.445861799	FALSE	FALSE	FALSE	FALSE	FALSE	0	FALSE	FALSE	TRUE
e19	2015	08	27	18	02	m	21	r	36.361578477	4	26	0.571351364022	0.742882442006	right	tactile	right	visual	target	voice	39.7739436012	FALSE	FALSE	FALSE	FALSE	FALSE	0	FALSE	FALSE	TRUE
e19	2015	08	27	18	02	m	21	r	36.361578477	4	27	0.440018220979	1.01579592007	left	visual	right	tactile	target	voice	112.806836609	FALSE	FALSE	FALSE	FALSE	FALSE	0	FALSE	FALSE	TRUE
e19	2015	08	27	18	02	m	21	r	36.361578477	4	28	0.401038765034	1.12458103952	left	visual	right	tactile	target	voice	56.3904041192	FALSE	FALSE	FALSE	FALSE	FALSE	0	FALSE	FALSE	TRUE
e19	2015	08	27	18	02	m	21	r	36.361578477	4	29	0.42875998799	0.616806709408	left	tactile	right	visual	target	voice	298.921175301	FALSE	FALSE	FALSE	FALSE	TRUE	0	FALSE	TRUE	TRUE
e19	2015	08	27	18	02	m	21	r	36.361578477	4	30	0.470871308004	1.03766936133	right	visual	right	tactile	target	voice	161.085588334	FALSE	FALSE	FALSE	FALSE	FALSE	0	FALSE	FALSE	TRUE
e19	2015	08	27	18	02	m	21	r	36.361578477	4	31	0.401786769042	1.31102677224	right	tactile	left	visual	target	voice	NA	TRUE	FALSE	FALSE	FALSE	TRUE	0	FALSE	FALSE	FALSE
e19	2015	08	27	18	02	m	21	r	36.361578477	4	32	2.06188593799	0.773183172712	right	tactile	left	tactile	target	voice	339.554313978	FALSE	FALSE	FALSE	FALSE	FALSE	0	FALSE	FALSE	TRUE
e19	2015	08	27	18	02	m	21	r	36.361578477	4	33	0.40345077595	0.722398439976	left	tactile	right	visual	target	voice	131.594673672	FALSE	FALSE	FALSE	FALSE	FALSE	0	FALSE	FALSE	TRUE
e19	2015	08	27	18	02	m	21	r	36.361578477	4	34	0.460272357042	1.20149307662	right	tactile	right	tactile	target	voice	13.2852650131	FALSE	FALSE	FALSE	TRUE	TRUE	0	FALSE	FALSE	TRUE
e19	2015	08	27	18	02	m	21	r	36.361578477	4	35	2.38094893697	0.703981912992	right	tactile	left	tactile	target	voice	NA	TRUE	FALSE	FALSE	FALSE	FALSE	0	FALSE	FALSE	FALSE
e19	2015	08	27	18	02	m	21	r	36.361578477	4	36	0.597065943002	0.771280094979	right	visual	left	tactile	target	voice	318.971010682	FALSE	FALSE	FALSE	FALSE	TRUE	0	FALSE	TRUE	TRUE
e19	2015	08	27	18	02	m	21	r	36.361578477	4	37	0.481651184033	0.648968648932	left	tactile	left	visual	target	voice	435.849187779	FALSE	FALSE	FALSE	TRUE	FALSE	0	TRUE	FALSE	TRUE
e19	2015	08	27	18	02	m	21	r	36.361578477	4	38	2.93109254498	0.840425896856	left	tactile	left	visual	target	voice	287.382872775	FALSE	FALSE	FALSE	FALSE	FALSE	0	FALSE	FALSE	TRUE
e19	2015	08	27	18	02	m	21	r	36.361578477	4	39	5.78589286801	1.07435062762	right	visual	right	visual	target	voice	289.433659054	FALSE	FALSE	FALSE	FALSE	FALSE	0	FALSE	FALSE	TRUE
e19	2015	08	27	18	02	m	21	r	36.361578477	4	40	0.401682200027	0.754923809783	left	tactile	right	tactile	target	voice	45.4081018688	FALSE	FALSE	FALSE	FALSE	FALSE	0	FALSE	FALSE	TRUE
e19	2015	08	27	18	02	m	21	r	2.92397778103	4	41	1.13316705101	1.07515423108	right	tactile	right	visual	target	voice	NA	TRUE	FALSE	FALSE	FALSE	FALSE	0	FALSE	FALSE	FALSE
e19	2015	08	27	18	02	m	21	r	2.92397778103	4	42	0.629333737015	0.602724833368	right	tactile	left	tactile	target	voice	432.757628325	FALSE	FALSE	FALSE	FALSE	FALSE	0	FALSE	FALSE	TRUE
e19	2015	08	27	18	02	m	21	r	2.92397778103	4	43	5.12984941498	1.34269520401	left	visual	left	visual	target	voice	247.064993659	FALSE	FALSE	FALSE	FALSE	FALSE	0	FALSE	FALSE	TRUE
e19	2015	08	27	18	02	m	21	r	2.92397778103	4	44	0.807972358016	1.31508447366	left	visual	right	tactile	catch	NA	NA	FALSE	FALSE	FALSE	FALSE	FALSE	0	FALSE	FALSE	TRUE
e19	2015	08	27	18	02	m	21	r	2.92397778103	4	45	14.994974983	0.765501079436	right	visual	left	visual	target	voice	286.473660264	FALSE	FALSE	FALSE	FALSE	FALSE	0	FALSE	FALSE	TRUE
e19	2015	08	27	18	02	m	21	r	2.92397778103	4	46	0.579713202023	0.934933700467	right	visual	left	tactile	target	voice	206.058562151	FALSE	FALSE	FALSE	FALSE	FALSE	0	FALSE	FALSE	TRUE
e19	2015	08	27	18	02	m	21	r	2.92397778103	4	47	0.409545645991	1.0674765515	right	visual	left	visual	target	voice	266.393972153	FALSE	FALSE	FALSE	FALSE	FALSE	0	FALSE	FALSE	TRUE
e19	2015	08	27	18	02	m	21	r	2.92397778103	4	48	0.403542376996	1.04958017001	left	visual	left	visual	target	voice	117.104975681	FALSE	FALSE	FALSE	FALSE	FALSE	0	FALSE	FALSE	TRUE
e19	2015	08	27	18	02	m	21	r	2.92397778103	4	49	2.06150743103	1.49266717696	right	tactile	left	tactile	target	voice	207.678372739	FALSE	FALSE	FALSE	FALSE	FALSE	0	FALSE	FALSE	TRUE
e19	2015	08	27	18	02	m	21	r	2.92397778103	4	50	0.543297332013	0.728447720603	right	tactile	right	tactile	target	voice	217.523032101	FALSE	FALSE	FALSE	FALSE	FALSE	0	FALSE	FALSE	TRUE
e19	2015	08	27	18	02	m	21	r	2.92397778103	4	51	0.453193513968	0.535503345607	right	visual	right	tactile	target	voice	845.568701101	FALSE	FALSE	FALSE	FALSE	FALSE	0	FALSE	FALSE	TRUE
